"Time (s)","Acceleration x (m/s^2)","Acceleration y (m/s^2)","Acceleration z (m/s^2)","Absolute acceleration (m/s^2)"
2.120749967E-3,5.942642212E-1,5.780978394E-1,8.919352112E0,8.957800465E0
1.215274999E-2,3.698808289E-1,6.062393188E-1,8.794511719E0,8.823138575E0
2.218375000E-2,6.930587769E-2,6.153703308E-1,9.050778809E0,9.071939208E0
3.221575002E-2,-8.577163696E-2,5.849835205E-1,9.569749603E0,9.587996139E0
4.224674997E-2,-1.047821045E-2,5.574407959E-1,1.006267456E1,1.007810842E1
5.227874999E-2,1.553768921E-1,5.532495117E-1,1.035681290E1,1.037274315E1
6.230975001E-2,3.427871704E-1,5.713618469E-1,1.038480469E1,1.040615807E1
7.234174997E-2,4.486170959E-1,5.903723145E-1,1.022972717E1,1.025656447E1
8.237274998E-2,4.511618042E-1,6.114784241E-1,1.002420456E1,1.005296622E1
9.240475000E-2,3.571572876E-1,5.816903687E-1,9.839937744E0,9.863584532E0
1.024357500E-1,2.424957275E-1,5.411247253E-1,9.680818634E0,9.698962294E0
1.124677500E-1,1.683998108E-1,5.319937134E-1,9.550290070E0,9.566578083E0
1.224987500E-1,1.254391479E-1,5.001100159E-1,9.531728668E0,9.545663749E0
1.325307500E-1,1.475930786E-1,4.948709106E-1,9.668095093E0,9.681877073E0
1.425617500E-1,2.092648315E-1,4.948709106E-1,9.936187592E0,9.950704138E0
1.525937500E-1,2.947370911E-1,5.025050354E-1,1.018003052E1,1.019668586E1
1.626257500E-1,3.981719971E-1,5.147795105E-1,1.015129028E1,1.017213022E1
1.726567500E-1,3.345542908E-1,4.936734009E-1,9.941726074E0,9.959596244E0
1.826887500E-1,2.423460388E-1,4.584965515E-1,9.791737976E0,9.805461911E0
1.927197500E-1,2.056723022E-1,4.764591980E-1,9.714947662E0,9.728798618E0
2.027517500E-1,2.161505127E-1,5.060975647E-1,9.716294861E0,9.731867324E0
2.127827500E-1,2.606080627E-1,5.131329346E-1,9.724976807E0,9.741991370E0
2.228147500E-1,2.850073242E-1,5.388793945E-1,9.691147156E0,9.710301405E0
2.328457500E-1,2.803669739E-1,5.478607178E-1,9.710007935E0,9.729491821E0
2.428777500E-1,2.573149109E-1,5.989045715E-1,9.774074707E0,9.795786545E0
2.529087500E-1,2.315684509E-1,6.222560120E-1,9.865983582E0,9.888299071E0
2.629407500E-1,2.143542480E-1,6.655160522E-1,9.956096191E0,9.980616751E0
2.729717500E-1,2.116598511E-1,6.710545349E-1,9.976902924E0,1.000168516E1
2.830037500E-1,2.145039368E-1,6.560856628E-1,9.955647125E0,9.979547586E0
2.930347500E-1,2.201921082E-1,6.318360901E-1,9.898316345E0,9.920905598E0
3.030667500E-1,2.411485291E-1,5.951623535E-1,9.871372375E0,9.892237533E0
3.130977500E-1,2.637515259E-1,5.599855042E-1,9.864935760E0,9.884336406E0
3.231297500E-1,2.808160400E-1,4.989125061E-1,9.864037628E0,9.880638120E0
3.331617500E-1,2.752775574E-1,4.767585754E-1,9.859696655E0,9.875054157E0
3.431927500E-1,2.561174011E-1,4.682263184E-1,9.853110352E0,9.867553679E0
3.532247500E-1,2.255809021E-1,4.706213379E-1,9.827663269E0,9.841510886E0
3.632557500E-1,2.309696960E-1,5.046006775E-1,9.800419922E0,9.816119370E0
3.732877500E-1,2.285746765E-1,5.122348022E-1,9.812844086E0,9.828862596E0
3.833187500E-1,2.474354553E-1,5.310955811E-1,9.809550934E0,9.827032937E0
3.933507500E-1,2.463876343E-1,5.231620789E-1,9.848919067E0,9.865881219E0
4.033817500E-1,2.622546387E-1,5.113366699E-1,9.876461792E0,9.893166339E0
4.134137500E-1,2.764750671E-1,5.135820007E-1,9.881700897E0,9.898899815E0
4.234447500E-1,2.754272461E-1,5.260061646E-1,9.830956421E0,9.848870331E0
4.334767500E-1,2.357597351E-1,5.483097839E-1,9.804611206E0,9.822760670E0
4.435077500E-1,2.345622253E-1,5.728587341E-1,9.812844086E0,9.832349445E0
4.535397500E-1,2.336640930E-1,5.774990845E-1,9.825867004E0,9.845596299E0
4.635707500E-1,2.359094238E-1,5.358856201E-1,9.815837860E0,9.833285288E0
4.736027500E-1,2.451901245E-1,5.246589661E-1,9.827064514E0,9.844114089E0
4.836337500E-1,2.487826538E-1,5.104385376E-1,9.842482452E0,9.858848875E0
4.936657500E-1,2.471360779E-1,5.002597046E-1,9.888586578E0,9.904316258E0
5.036977500E-1,2.513273621E-1,5.237608337E-1,9.912686462E0,9.929695048E0
5.137287500E-1,2.417472839E-1,5.468128967E-1,9.935289459E0,9.953261914E0
5.237607500E-1,2.528242493E-1,5.548960876E-1,9.909393311E0,9.928137064E0
5.337917500E-1,2.595602417E-1,5.776487732E-1,9.889335022E0,9.909591152E0
5.438237500E-1,2.625540161E-1,5.786965942E-1,9.860445099E0,9.880900865E0
5.538547500E-1,2.604583740E-1,5.782475281E-1,9.851314087E0,9.871706945E0
5.638867500E-1,2.627037048E-1,5.727090454E-1,9.853709106E0,9.873833705E0
5.739177500E-1,2.647993469E-1,5.632786560E-1,9.844129028E0,9.863786183E0
5.839497500E-1,2.685415649E-1,5.484594727E-1,9.814939728E0,9.833919067E0
5.939807500E-1,2.592608643E-1,5.466632080E-1,9.817334747E0,9.835960472E0
6.040127500E-1,2.477348328E-1,5.331912231E-1,9.804910583E0,9.822521926E0
6.140437500E-1,2.303709412E-1,5.176235962E-1,9.812694397E0,9.829037404E0
6.240757500E-1,2.107617188E-1,5.007087708E-1,9.844727783E0,9.859705619E0
6.341067500E-1,2.354603577E-1,4.938230896E-1,9.854906616E0,9.870080407E0
6.441387500E-1,2.395019531E-1,4.810995483E-1,9.859097900E0,9.873734317E0
6.541707500E-1,2.555186462E-1,4.522096252E-1,9.849817200E0,9.863502532E0
6.642017500E-1,2.715353394E-1,4.555027771E-1,9.832303619E0,9.846593760E0
6.742337500E-1,2.668949890E-1,4.628375244E-1,9.824519806E0,9.839036585E0
6.842647500E-1,2.600093079E-1,4.770579529E-1,9.792037354E0,9.807098687E0
6.942967500E-1,2.483335876E-1,4.808001709E-1,9.799521790E0,9.814451879E0
7.043277500E-1,2.504292297E-1,4.857398987E-1,9.809101868E0,9.824313589E0
7.143597500E-1,2.179467773E-1,5.022056580E-1,9.832303619E0,9.847532980E0
7.243907500E-1,2.107617188E-1,5.069956970E-1,9.869127045E0,9.884388386E0
7.344227500E-1,2.293231201E-1,5.298980713E-1,9.896669769E0,9.913498554E0
7.444537500E-1,2.360591125E-1,5.629792786E-1,9.883946228E0,9.902780549E0
7.544857500E-1,2.245330811E-1,5.926176453E-1,9.855954437E0,9.876307440E0
7.645167500E-1,2.369572449E-1,5.942642212E-1,9.831854553E0,9.852647495E0
7.745487500E-1,2.210902405E-1,6.093827820E-1,9.815089417E0,9.836473378E0
7.845797500E-1,2.103126526E-1,5.860313416E-1,9.857451324E0,9.877095259E0
7.946117500E-1,2.106120300E-1,5.544470215E-1,9.858948212E0,9.876772184E0
8.046437500E-1,2.200424194E-1,5.204676819E-1,9.862690430E0,9.878864701E0
8.146747500E-1,2.118095398E-1,5.002597046E-1,9.859696655E0,9.874651446E0
8.247067500E-1,2.180964661E-1,5.113366699E-1,9.830357666E0,9.846063330E0
8.347377500E-1,2.386038208E-1,5.038522339E-1,9.827663269E0,9.843463018E0
8.447697500E-1,2.460882568E-1,5.095404053E-1,9.849817200E0,9.866057456E0
8.548007500E-1,2.896476746E-1,5.102888489E-1,9.986183624E0,1.000340711E1
8.648327500E-1,3.644920349E-1,4.875361633E-1,1.002719833E1,1.004565838E1
8.748637500E-1,3.541635132E-1,4.655319214E-1,9.861343231E0,9.878676130E0
8.848957500E-1,2.653981018E-1,4.406835938E-1,9.757010193E0,9.770562220E0
8.949267500E-1,1.814227295E-1,4.378395081E-1,9.734856262E0,9.746386207E0
9.049587500E-1,2.065704346E-1,4.538562012E-1,9.788145447E0,9.800839152E0
9.149897500E-1,2.519261169E-1,4.827461243E-1,9.813293152E0,9.828389139E0
9.250217500E-1,2.868035889E-1,4.980143738E-1,9.798174591E0,9.815014006E0
9.350527500E-1,2.848576355E-1,5.183720398E-1,9.751471710E0,9.769393735E0
9.450847500E-1,2.589614868E-1,5.727090454E-1,9.745484161E0,9.765731833E0
9.551167500E-1,2.386038208E-1,6.002517700E-1,9.795180817E0,9.816455633E0
9.651477500E-1,2.284249878E-1,6.289920044E-1,9.855205994E0,9.877899275E0
9.751797500E-1,2.326162720E-1,6.556365967E-1,9.928852844E0,9.953194888E0
9.852107500E-1,2.505789185E-1,6.373745728E-1,9.948312378E0,9.971858167E0
9.952427500E-1,2.484832764E-1,6.144721985E-1,9.922865295E0,9.944977410E0
1.005273750E0,2.556683350E-1,5.761518860E-1,9.921218719E0,9.941222167E0
1.015305750E0,2.775228882E-1,5.243595886E-1,9.914931793E0,9.932665523E0
1.025336750E0,2.719844055E-1,4.794529724E-1,9.910441132E0,9.925759119E0
1.035368750E0,2.570155334E-1,4.469705200E-1,9.866282959E0,9.879745900E0
1.045399750E0,2.411485291E-1,4.394860840E-1,9.825118561E0,9.837898930E0
1.055431750E0,2.354603577E-1,4.611909485E-1,9.821226654E0,9.834868157E0
1.065462750E0,2.195933533E-1,4.782554626E-1,9.799821167E0,9.813941330E0
1.075494750E0,2.326162720E-1,4.944218445E-1,9.799671478E0,9.814892988E0
1.085525375E0,2.570155334E-1,5.107379150E-1,9.835746460E0,9.852350919E0
1.095557375E0,2.749781799E-1,5.240602112E-1,9.863887939E0,9.881626252E0
1.105589375E0,2.903961182E-1,5.153782654E-1,9.865235138E0,9.882955478E0
1.115620375E0,2.881507874E-1,5.231620789E-1,9.864786072E0,9.882850483E0
1.125652375E0,2.811154175E-1,5.170248413E-1,9.835147705E0,9.852739261E0
1.135683375E0,2.460882568E-1,5.297483826E-1,9.802665253E0,9.820052894E0
1.145715375E0,2.380050659E-1,5.547463989E-1,9.806856537E0,9.825417300E0
1.155746375E0,2.118095398E-1,5.704637146E-1,9.819729767E0,9.838566198E0
1.165778375E0,2.101629639E-1,5.667214966E-1,9.824819183E0,9.843394420E0
1.175809375E0,2.451901245E-1,5.429209900E-1,9.814490662E0,9.832553501E0
1.185841375E0,2.573149109E-1,5.095404053E-1,9.820777588E0,9.837353039E0
1.195872375E0,2.589614868E-1,4.966671753E-1,9.864187317E0,9.880077467E0
1.205904375E0,2.659968567E-1,5.074447632E-1,9.895771637E0,9.912343356E0
1.215935375E0,2.721340942E-1,5.086422729E-1,9.900861053E0,9.917652118E0
1.225967375E0,2.752775574E-1,5.349874878E-1,9.904303894E0,9.922561412E0
1.235998375E0,2.724334717E-1,5.487588501E-1,9.897268524E0,9.916213013E0
1.246030375E0,2.775228882E-1,5.463638306E-1,9.899513855E0,9.918462933E0
1.256062375E0,2.824626160E-1,5.499563599E-1,9.857750702E0,9.877119318E0
1.266093375E0,2.716850281E-1,5.511538696E-1,9.849966888E0,9.869115008E0
1.276125375E0,2.600093079E-1,5.348377991E-1,9.840835876E0,9.858788316E0
1.286156375E0,2.588117981E-1,5.450166321E-1,9.835447083E0,9.853935558E0
1.296188375E0,2.468367004E-1,5.454656982E-1,9.807754669E0,9.826012051E0
1.306219375E0,2.323168945E-1,5.433700562E-1,9.795031128E0,9.812841431E0
1.316251375E0,2.420466614E-1,5.239105225E-1,9.811945953E0,9.828903917E0
1.326282375E0,2.318678284E-1,4.984634399E-1,9.827962646E0,9.843326586E0
1.336314375E0,2.357597351E-1,4.736151123E-1,9.850865021E0,9.865061357E0
1.346345375E0,2.510279846E-1,4.652325439E-1,9.868079224E0,9.882228693E0
1.356377375E0,2.772235107E-1,4.595443726E-1,9.853110352E0,9.867715921E0
1.366408375E0,2.805166626E-1,4.637356567E-1,9.842183075E0,9.857094300E0
1.376440375E0,2.805166626E-1,4.649331665E-1,9.839488678E0,9.854460406E0
1.386472375E0,2.621049500E-1,4.725672913E-1,9.824070740E0,9.838921930E0
1.396503375E0,2.469863892E-1,4.770579529E-1,9.805958405E0,9.820662238E0
1.406535375E0,2.300715637E-1,4.764591980E-1,9.832004242E0,9.846230431E0
1.416566375E0,2.203417969E-1,4.682263184E-1,9.890233154E0,9.903761823E0
1.426598375E0,1.941462708E-1,4.858895874E-1,9.901310120E0,9.915125998E0
1.436629375E0,1.695973206E-1,4.818479919E-1,9.872869263E0,9.886075471E0
1.446661375E0,1.341210938E-1,4.779560852E-1,9.834099884E0,9.846621300E0
1.456692375E0,1.207987976E-1,5.110372925E-1,9.805659027E0,9.819709793E0
1.466724375E0,1.568737793E-1,5.197192383E-1,9.829609222E0,9.844589120E0
1.476755375E0,2.103126526E-1,5.409750366E-1,9.840237122E0,9.857340007E0
1.486787375E0,3.197351074E-1,5.872288513E-1,9.847422180E0,9.870095838E0
1.496818375E0,4.361929321E-1,6.361770630E-1,9.875563660E0,9.905641985E0
1.506850375E0,5.126838684E-1,6.944059753E-1,9.835896149E0,9.873697254E0
1.516881375E0,5.248086548E-1,7.686515808E-1,9.798623657E0,9.842727008E0
1.526913375E0,4.858895874E-1,7.899073792E-1,9.822723541E0,9.866404620E0
1.536945375E0,4.111949158E-1,7.447013855E-1,9.822573853E0,9.859341687E0
1.546976375E0,3.516188049E-1,6.652166748E-1,9.962981873E0,9.991354102E0
1.557008375E0,3.213816833E-1,5.355862427E-1,1.004815475E1,1.006754949E1
1.567039375E0,2.695893860E-1,4.266128540E-1,9.907147980E0,9.919992846E0
1.577071375E0,1.411564636E-1,3.448828125E-1,9.760303345E0,9.767414739E0
1.587102375E0,5.254074097E-2,2.832110596E-1,9.737400970E0,9.741660366E0
1.597134375E0,6.616241455E-2,2.866539001E-1,9.763746185E0,9.768177286E0
1.607165375E0,1.498384094E-1,3.382965088E-1,9.788444824E0,9.795435067E0
1.617197375E0,2.547702026E-1,4.011657715E-1,9.786199493E0,9.797731490E0
1.627228375E0,3.228785706E-1,5.146298218E-1,9.724976807E0,9.743934950E0
1.637260375E0,3.454815674E-1,6.164181519E-1,9.724228363E0,9.749869030E0
1.647291375E0,3.591032410E-1,7.029382324E-1,9.765093384E0,9.796944732E0
1.657323375E0,3.516188049E-1,7.548802185E-1,9.852062531E0,9.887194548E0
1.667355375E0,3.547622681E-1,7.662565613E-1,9.900262299E0,9.936206468E0
1.677386375E0,3.465293884E-1,7.339237976E-1,9.934690704E0,9.967788428E0
1.687418375E0,3.234773254E-1,6.721023560E-1,9.938283234E0,9.966234634E0
1.697449375E0,3.085084534E-1,6.107299805E-1,9.924362183E0,9.947921055E0
1.707481375E0,2.903961182E-1,5.201683044E-1,9.931846619E0,9.949697595E0
1.717512375E0,2.692900085E-1,4.655319214E-1,9.927355957E0,9.941912964E0
1.727544375E0,2.543211365E-1,4.403842163E-1,9.894125061E0,9.907185686E0
1.737575375E0,2.362088013E-1,4.447251892E-1,9.843530273E0,9.856402150E0
1.747607375E0,2.478845215E-1,4.656816101E-1,9.822723541E0,9.836879783E0
1.757638375E0,2.805166626E-1,5.194198608E-1,9.811047821E0,9.828791682E0
1.767670375E0,2.971321106E-1,5.468128967E-1,9.823471985E0,9.843164820E0
1.777701375E0,3.267704773E-1,5.637277222E-1,9.863887939E0,9.885385838E0
1.787733375E0,3.487747192E-1,5.644761658E-1,9.876910858E0,9.899173968E0
1.797765375E0,3.468287659E-1,5.547463989E-1,9.858199768E0,9.879885446E0
1.807796375E0,3.206332397E-1,5.370831299E-1,9.846074982E0,9.865924007E0
1.817828375E0,3.044668579E-1,5.245092773E-1,9.834249573E0,9.852932290E0
1.827859375E0,2.890489197E-1,5.108876038E-1,9.777816925E0,9.795420320E0
1.837891375E0,2.589614868E-1,5.315446472E-1,9.759704590E0,9.777598603E0
1.847922375E0,2.520758057E-1,5.574407959E-1,9.782906342E0,9.802017085E0
1.857954375E0,2.326162720E-1,5.667214966E-1,9.799072723E0,9.818202983E0
1.867985375E0,2.662962341E-1,5.346881104E-1,9.804012451E0,9.822192484E0
1.878017375E0,2.947370911E-1,5.294490051E-1,9.838440857E0,9.857083986E0
1.888048375E0,2.992277527E-1,5.138813782E-1,9.878856812E0,9.896738009E0
1.898080375E0,3.065625000E-1,5.065466309E-1,9.877210236E0,9.894940732E0
1.908111375E0,3.059637451E-1,5.099894714E-1,9.881102142E0,9.898983919E0
1.918143375E0,2.770738220E-1,5.242098999E-1,9.879156189E0,9.896933511E0
1.928175375E0,2.553689575E-1,5.695655823E-1,9.883347473E0,9.903038702E0
1.938206375E0,2.721340942E-1,5.742059326E-1,9.883048096E0,9.903454401E0
1.948238375E0,2.912942505E-1,5.888754272E-1,9.885892181E0,9.907698564E0
1.958269375E0,3.101550293E-1,5.769003296E-1,9.882449341E0,9.904131214E0
1.968301375E0,3.064128113E-1,5.707630920E-1,9.873617706E0,9.894846433E0
1.978332375E0,2.951861572E-1,5.661227417E-1,9.870324554E0,9.890952261E0
1.988364375E0,2.944377136E-1,5.544470215E-1,9.853858795E0,9.873836044E0
1.998395375E0,2.697390747E-1,5.388793945E-1,9.828411713E0,9.846868891E0
2.008427375E0,2.538720703E-1,5.269042969E-1,9.793085175E0,9.810534970E0
2.018458375E0,2.402503967E-1,5.044509888E-1,9.782756653E0,9.798699852E0
2.028490375E0,2.601589966E-1,4.788542175E-1,9.821076965E0,9.836185075E0
2.038521375E0,2.558180237E-1,4.679269409E-1,9.855804749E0,9.870222172E0
2.048553375E0,2.704875183E-1,4.522096252E-1,9.851014709E0,9.865097458E0
2.058585375E0,2.911445618E-1,4.513114929E-1,9.838440857E0,9.853089146E0
2.068616375E0,2.995271301E-1,4.617897034E-1,9.834998016E0,9.850388430E0
2.078648375E0,3.010240173E-1,4.872367859E-1,9.817634125E0,9.834325343E0
2.088679667E0,2.989283752E-1,4.993615723E-1,9.800270233E0,9.817536188E0
2.098711667E0,2.670446777E-1,4.995112610E-1,9.816586304E0,9.832913659E0
2.108742667E0,2.553689575E-1,4.996609497E-1,9.850116577E0,9.866086912E0
2.118774667E0,2.835104370E-1,5.035528564E-1,9.895771637E0,9.912630324E0
2.128805667E0,2.915936279E-1,5.322930908E-1,9.902956696E0,9.921537889E0
2.138837667E0,3.088078308E-1,5.517526245E-1,9.871222687E0,9.891452399E0
2.148868667E0,2.884501648E-1,5.932164001E-1,9.835746460E0,9.857840414E0
2.158900667E0,2.642005920E-1,6.041436768E-1,9.812544708E0,9.834674636E0
2.168931667E0,2.547702026E-1,5.869294739E-1,9.826765137E0,9.847573666E0
2.178963667E0,2.505789185E-1,5.644761658E-1,9.857301636E0,9.876629925E0
2.188995667E0,2.469863892E-1,5.481600952E-1,9.883646851E0,9.901916826E0
2.199026667E0,2.619552612E-1,5.284011841E-1,9.885592804E0,9.903169869E0
2.209058667E0,2.571652222E-1,5.156776428E-1,9.840835876E0,9.857692840E0
2.219089667E0,2.785707092E-1,5.002597046E-1,9.845326538E0,9.861963093E0
2.229121667E0,3.010240173E-1,5.189707947E-1,9.820029144E0,9.838339217E0
2.239152667E0,3.074606323E-1,5.062472534E-1,9.849068756E0,9.866862403E0
2.249184667E0,3.363505554E-1,4.836442566E-1,9.970017242E0,9.987406434E0
2.259215667E0,3.763174438E-1,4.772076416E-1,9.930050354E0,9.948630156E0
2.269247667E0,3.104544067E-1,4.752616882E-1,9.767039337E0,9.783522526E0
2.279278667E0,2.158511353E-1,4.517605591E-1,9.731712799E0,9.744583794E0
2.289310667E0,1.893562317E-1,4.556524658E-1,9.761949921E0,9.774412576E0
2.299341667E0,2.281256104E-1,4.415817261E-1,9.814939728E0,9.827516348E0
2.309373667E0,2.778222656E-1,4.598437500E-1,9.833950195E0,9.848615026E0
2.319405667E0,2.924917603E-1,5.054988098E-1,9.791288910E0,9.808690993E0
2.329436667E0,2.809657288E-1,5.487588501E-1,9.734257507E0,9.753760671E0
2.339468667E0,2.760260010E-1,6.045927429E-1,9.765991516E0,9.788580747E0
2.349499667E0,2.860551453E-1,6.477030945E-1,9.848619690E0,9.874039530E0
2.359531667E0,2.986289978E-1,6.637197876E-1,9.915380859E0,9.942056167E0
2.369562667E0,2.996768188E-1,6.587800598E-1,9.965376892E0,9.991623190E0
2.379594667E0,3.025209045E-1,6.286926270E-1,9.962682495E0,9.987082448E0
2.389625667E0,3.040177917E-1,5.830375671E-1,9.955647125E0,9.977337786E0
2.399657667E0,3.020718384E-1,5.219645691E-1,9.949060822E0,9.967321889E0
2.409688667E0,2.875520325E-1,4.775070190E-1,9.921967163E0,9.937611962E0
2.419720667E0,2.793191528E-1,4.583468628E-1,9.858199768E0,9.872801209E0
2.429751667E0,2.820135498E-1,4.727169800E-1,9.810598755E0,9.826028746E0
2.439783667E0,2.724334717E-1,4.897814941E-1,9.777966614E0,9.794015367E0
2.449815667E0,2.908451843E-1,4.924758911E-1,9.791887665E0,9.808577240E0
2.459846667E0,2.908451843E-1,5.225633240E-1,9.823022919E0,9.841211440E0
2.469878667E0,3.094065857E-1,5.239105225E-1,9.832752686E0,9.851560285E0
2.479909667E0,3.198847961E-1,5.361849976E-1,9.858199768E0,9.877951372E0
2.489941667E0,3.209326172E-1,5.447172546E-1,9.868677979E0,9.888908922E0
2.499972667E0,3.297642517E-1,5.215155029E-1,9.859397278E0,9.878686024E0
2.510004667E0,3.029699707E-1,5.111869812E-1,9.869127045E0,9.887000129E0
2.520035667E0,2.888992310E-1,5.170248413E-1,9.831255798E0,9.849079552E0
2.530067667E0,2.891986084E-1,5.224136353E-1,9.786798248E0,9.804997287E0
2.540098667E0,2.474354553E-1,5.430706787E-1,9.802964630E0,9.821113257E0
2.550130667E0,2.585124207E-1,5.671705627E-1,9.816436615E0,9.836205515E0
2.560161667E0,2.686912537E-1,5.731581116E-1,9.808054047E0,9.828460174E0
2.570193667E0,3.107537842E-1,5.438191223E-1,9.849218445E0,9.869113999E0
2.580225667E0,3.335064697E-1,5.270539856E-1,9.873168640E0,9.892849512E0
2.590256667E0,3.240760803E-1,5.010081482E-1,9.870474243E0,9.888493124E0
2.600288667E0,2.956352234E-1,5.098397827E-1,9.857002258E0,9.874605324E0
2.610319667E0,2.856060791E-1,5.269042969E-1,9.877808990E0,9.895974405E0
2.620351667E0,2.709365845E-1,5.423222351E-1,9.887538757E0,9.906106335E0
2.630382667E0,2.773731995E-1,5.640270996E-1,9.887538757E0,9.907496411E0
2.640414667E0,2.924917603E-1,5.539979553E-1,9.875713348E0,9.895563617E0
2.650445667E0,3.083587646E-1,5.601351929E-1,9.869426422E0,9.890117010E0
2.660477667E0,3.245251465E-1,5.415737915E-1,9.866582336E0,9.886762147E0
2.670508667E0,2.990780640E-1,5.493576050E-1,9.861343231E0,9.881160448E0
2.680540667E0,2.920426941E-1,5.545967102E-1,9.852212219E0,9.872130067E0
2.690571667E0,2.836601257E-1,5.523513794E-1,9.831255798E0,9.850844922E0
2.700603667E0,2.682421875E-1,5.384303284E-1,9.814640350E0,9.833057830E0
2.710635667E0,2.622546387E-1,5.111869812E-1,9.797875214E0,9.814705718E0
2.720666667E0,2.481838989E-1,4.963677979E-1,9.806407471E0,9.822097725E0
2.730698667E0,2.622546387E-1,4.697232056E-1,9.856852570E0,9.871522677E0
2.740729667E0,2.655477905E-1,4.513114929E-1,9.879305878E0,9.893173521E0
2.750761667E0,2.881507874E-1,4.555027771E-1,9.863588562E0,9.878304155E0
2.760792667E0,2.890489197E-1,4.760101318E-1,9.825268250E0,9.841038111E0
2.770824667E0,3.067121887E-1,4.843927002E-1,9.807006226E0,9.823750799E0
2.780855667E0,3.010240173E-1,4.959187317E-1,9.813143463E0,9.830276470E0
2.790887667E0,3.088078308E-1,5.168751526E-1,9.820328522E0,9.838768951E0
2.800918667E0,3.215313721E-1,5.129832458E-1,9.853409729E0,9.871991568E0
2.810950667E0,2.993774414E-1,5.129832458E-1,9.853858795E0,9.871743099E0
2.820981667E0,2.686912537E-1,5.049000549E-1,9.878258057E0,9.894801731E0
2.831013667E0,2.412982178E-1,4.950205994E-1,9.876611481E0,9.891952515E0
2.841045667E0,2.415975952E-1,5.080435181E-1,9.865983582E0,9.882009393E0
2.851076667E0,2.607577515E-1,5.270539856E-1,9.875413971E0,9.892905620E0
2.861108667E0,2.650987244E-1,5.668711853E-1,9.840237122E0,9.860115967E0
2.871139667E0,2.773731995E-1,6.001020813E-1,9.825567627E0,9.847783385E0
2.881171667E0,2.742297363E-1,5.959107971E-1,9.793534241E0,9.815478824E0
2.891202667E0,2.594105530E-1,5.763015747E-1,9.824669495E0,9.844975775E0
2.901234667E0,2.541714478E-1,5.402265930E-1,9.855205994E0,9.873273676E0
2.911265667E0,2.673440552E-1,5.075944519E-1,9.883347473E0,9.899983952E0
2.921297667E0,2.883004761E-1,4.935237122E-1,9.898765411E0,9.915252871E0
2.931328667E0,2.902464294E-1,4.854405212E-1,9.852062531E0,9.868284126E0
2.941360667E0,2.826123047E-1,4.941224670E-1,9.843829651E0,9.860274282E0
2.951392667E0,3.008743286E-1,5.019062805E-1,9.825717316E0,9.843127351E0
2.961423667E0,3.052153015E-1,5.150788879E-1,9.818831635E0,9.837068532E0
2.971455667E0,3.258723450E-1,4.992118835E-1,9.920470276E0,9.938366857E0
2.981486667E0,3.665876770E-1,4.745132446E-1,9.974657593E0,9.992664481E0
2.991518667E0,3.608995056E-1,4.742138672E-1,9.824669495E0,9.842726143E0
3.001549667E0,2.610571289E-1,4.469705200E-1,9.751471710E0,9.765200151E0
3.011581667E0,1.962419128E-1,4.478686523E-1,9.766290894E0,9.778524175E0
3.021612667E0,2.185455322E-1,4.430786133E-1,9.807604980E0,9.820040543E0
3.031644667E0,2.561174011E-1,4.549040222E-1,9.842332764E0,9.856168019E0
3.041675667E0,2.811154175E-1,4.842430115E-1,9.804162140E0,9.820138107E0
3.051707667E0,2.619552612E-1,5.394781494E-1,9.750723267E0,9.769148451E0
3.061738667E0,2.642005920E-1,6.122268677E-1,9.756261749E0,9.779021782E0
3.071770667E0,2.815644836E-1,6.466552734E-1,9.822424164E0,9.847713341E0
3.081802667E0,3.233276367E-1,6.718029785E-1,9.903854828E0,9.931877992E0
3.091833792E0,3.397933960E-1,6.590794373E-1,9.965077515E0,9.992628039E0
3.101865792E0,3.385958862E-1,6.239025879E-1,9.967472534E0,9.992717865E0
3.111896792E0,3.197351074E-1,5.813909912E-1,9.945318604E0,9.967427359E0
3.121928792E0,3.135978699E-1,5.083428955E-1,9.914183350E0,9.932159262E0
3.131959792E0,2.749781799E-1,4.556524658E-1,9.902807007E0,9.917097296E0
3.141991792E0,2.677931213E-1,4.501139832E-1,9.845476227E0,9.859397440E0
3.152022792E0,2.709365845E-1,4.728666687E-1,9.793983307E0,9.809134444E0
3.162054792E0,2.773731995E-1,4.842430115E-1,9.773475952E0,9.789395251E0
3.172085792E0,3.049159241E-1,5.096900940E-1,9.797276459E0,9.815262794E0
3.182117792E0,3.162922668E-1,5.354365540E-1,9.832602997E0,9.852249225E0
3.192148792E0,3.366499329E-1,5.239105225E-1,9.867929535E0,9.887560302E0
3.202180792E0,3.426374817E-1,5.138813782E-1,9.905950470E0,9.925186609E0
3.212212792E0,3.519181824E-1,5.105882263E-1,9.893376617E0,9.912792121E0
3.222243792E0,3.216810608E-1,4.996609497E-1,9.854008484E0,9.871910806E0
3.232275792E0,2.911445618E-1,5.143304443E-1,9.835746460E0,9.853487169E0
3.242306792E0,2.932402039E-1,5.044509888E-1,9.837542725E0,9.854831682E0
3.252338792E0,2.719844055E-1,5.146298218E-1,9.802515564E0,9.819782622E0
3.262369792E0,2.712359619E-1,5.638774109E-1,9.798773346E0,9.818731373E0
3.272401792E0,2.601589966E-1,5.755531311E-1,9.820777588E0,9.841067856E0
3.282432792E0,2.677931213E-1,5.682183838E-1,9.818083191E0,9.838157492E0
3.292464792E0,3.091072083E-1,5.661227417E-1,9.840386810E0,9.861503679E0
3.302495792E0,3.391946411E-1,5.213658142E-1,9.875863037E0,9.895430564E0
3.312527792E0,3.403921509E-1,5.035528564E-1,9.855804749E0,9.874528826E0
3.322559792E0,3.149450684E-1,5.034031677E-1,9.846973114E0,9.864861107E0
3.332590792E0,2.903961182E-1,5.381309509E-1,9.832902374E0,9.851897479E0
3.342622792E0,2.833607483E-1,5.451663208E-1,9.849817200E0,9.868961369E0
3.352653792E0,2.809657288E-1,5.538482666E-1,9.856104126E0,9.875650773E0
3.362685792E0,3.064128113E-1,5.776487732E-1,9.880952454E0,9.902564734E0
3.372716792E0,3.010240173E-1,5.792953491E-1,9.876012726E0,9.897566667E0
3.382748792E0,3.119512939E-1,5.530998230E-1,9.897567902E0,9.917917291E0
3.392779792E0,3.128494263E-1,5.430706787E-1,9.899962921E0,9.919781568E0
3.402811792E0,3.158432007E-1,5.321434021E-1,9.880952454E0,9.900310850E0
3.412842792E0,3.082090759E-1,5.224136353E-1,9.847122803E0,9.865786149E0
3.422874792E0,2.936892700E-1,5.240602112E-1,9.820178833E0,9.838536721E0
3.432905792E0,2.691403198E-1,5.037025452E-1,9.787097626E0,9.803745851E0
3.442937792E0,2.691403198E-1,5.031037903E-1,9.809850311E0,9.826429314E0
3.452969792E0,2.754272461E-1,4.722679138E-1,9.836943970E0,9.852124838E0
3.463000792E0,3.035687256E-1,4.578977966E-1,9.850266266E0,9.865574989E0
3.473032792E0,2.956352234E-1,4.641847229E-1,9.831854553E0,9.847244873E0
3.483063792E0,3.098556519E-1,4.682263184E-1,9.823172607E0,9.839205582E0
3.493095792E0,2.883004761E-1,4.858895874E-1,9.836195526E0,9.852408248E0
3.503126792E0,3.043171692E-1,4.915777588E-1,9.834698639E0,9.851677773E0
3.513158792E0,3.008743286E-1,5.134323120E-1,9.836943970E0,9.854927943E0
3.523189792E0,3.079096985E-1,5.225633240E-1,9.842183075E0,9.860854349E0
3.533221792E0,3.118016052E-1,5.303471375E-1,9.852361908E0,9.871551220E0
3.543252792E0,3.046165466E-1,5.334906006E-1,9.839039612E0,9.858199833E0
3.553284792E0,2.947370911E-1,5.396278381E-1,9.841135254E0,9.860325108E0
3.563315792E0,2.737806702E-1,5.275030518E-1,9.861792297E0,9.879684339E0
3.573347792E0,2.682421875E-1,5.158273315E-1,9.863887939E0,9.881007893E0
3.583379792E0,2.609074402E-1,5.387297058E-1,9.888137512E0,9.906238734E0
3.593410792E0,2.764750671E-1,5.595364380E-1,9.861792297E0,9.881521482E0
3.603442792E0,2.990780640E-1,5.769003296E-1,9.837991791E0,9.859429200E0
3.613473792E0,3.073109436E-1,5.789959717E-1,9.797276459E0,9.819180330E0
3.623505792E0,2.796185303E-1,5.523513794E-1,9.798024902E0,9.817564390E0
3.633536792E0,2.748284912E-1,5.251080322E-1,9.823471985E0,9.841334817E0
3.643568792E0,2.896476746E-1,4.837939453E-1,9.854906616E0,9.871025112E0
3.653599792E0,2.942880249E-1,4.860392761E-1,9.883646851E0,9.899965388E0
3.663631792E0,3.001258850E-1,4.858895874E-1,9.842632141E0,9.859187173E0
3.673662792E0,3.076103210E-1,5.110372925E-1,9.835297394E0,9.853367853E0
3.683694792E0,3.173400879E-1,5.201683044E-1,9.852511597E0,9.871335500E0
3.693726792E0,3.204835510E-1,5.096900940E-1,9.831255798E0,9.849674323E0
3.703757792E0,3.288661194E-1,5.113366699E-1,9.915829926E0,9.934450223E0
3.713789792E0,3.647914124E-1,5.056484985E-1,9.966125336E0,9.985610016E0
3.723820792E0,3.680845642E-1,5.004093933E-1,9.829908600E0,9.849517698E0
3.733852792E0,2.793191528E-1,4.700225830E-1,9.707313538E0,9.722699035E0
3.743883792E0,1.977388000E-1,4.381388855E-1,9.716743927E0,9.728626771E0
3.753915792E0,1.990859985E-1,4.267625427E-1,9.780960388E0,9.792290213E0
3.763946792E0,2.791694641E-1,4.321513367E-1,9.839488678E0,9.852929910E0
3.773978792E0,2.887495422E-1,4.593946838E-1,9.827812958E0,9.842780466E0
3.784009792E0,3.055146790E-1,5.252577209E-1,9.773475952E0,9.792347373E0
3.794041792E0,2.878514099E-1,5.803431702E-1,9.750124512E0,9.771621392E0
3.804072792E0,3.124003601E-1,6.303392029E-1,9.807904358E0,9.833102735E0
3.814104792E0,3.496728516E-1,6.730004883E-1,9.881401520E0,9.910464003E0
3.824136792E0,3.661386108E-1,6.878196716E-1,9.954898682E0,9.985347322E0
3.834167792E0,3.611988831E-1,6.491999817E-1,9.970765686E0,9.998404553E0
3.844199792E0,3.362008667E-1,6.039939880E-1,9.971364441E0,9.995296322E0
3.854230792E0,3.137475586E-1,5.318440247E-1,9.950258331E0,9.969400005E0
3.864262792E0,2.899470520E-1,4.851411438E-1,9.904902649E0,9.921014449E0
3.874293792E0,2.806663513E-1,4.514611816E-1,9.850865021E0,9.865198044E0
3.884325792E0,2.785707092E-1,4.659809875E-1,9.790390778E0,9.805431734E0
3.894356792E0,2.888992310E-1,4.944218445E-1,9.770931244E0,9.787697027E0
3.904388792E0,3.122506714E-1,5.200186157E-1,9.803114319E0,9.821861850E0
3.914419792E0,3.321592712E-1,5.321434021E-1,9.807455292E0,9.827496410E0
3.924451792E0,3.390449524E-1,5.336402893E-1,9.841734009E0,9.862020672E0
3.934483792E0,3.646417236E-1,5.245092773E-1,9.883796539E0,9.904418590E0
3.944514792E0,3.438349915E-1,5.161267090E-1,9.889634399E0,9.909060391E0
3.954546792E0,3.469784546E-1,5.105882263E-1,9.871821442E0,9.891104739E0
3.964577792E0,3.200344849E-1,4.930746460E-1,9.854158173E0,9.871675540E0
3.974609792E0,3.109034729E-1,5.119354248E-1,9.865684204E0,9.883848626E0
3.984640792E0,2.972817993E-1,5.233117676E-1,9.808054047E0,9.826502728E0
3.994672792E0,2.637515259E-1,5.523513794E-1,9.798773346E0,9.817872275E0
4.004703792E0,2.564167786E-1,5.671705627E-1,9.790390778E0,9.810157164E0
4.014735792E0,2.540217590E-1,5.807922363E-1,9.800868988E0,9.821348156E0
4.024766792E0,3.023712158E-1,5.673202515E-1,9.816286926E0,9.837315164E0
4.034798792E0,3.520678711E-1,5.442681885E-1,9.886041870E0,9.907270235E0
4.044829792E0,3.694317627E-1,5.324427795E-1,9.878707123E0,9.899940887E0
4.054861792E0,3.445834351E-1,5.228627014E-1,9.866732025E0,9.886583030E0
4.064893792E0,2.918930054E-1,5.209167480E-1,9.842482452E0,9.860578919E0
4.074924792E0,2.891986084E-1,5.400769043E-1,9.822424164E0,9.841510827E0
4.084956792E0,2.972817993E-1,5.448669434E-1,9.844727783E0,9.864275015E0
4.094987667E0,3.086581421E-1,5.719606018E-1,9.850116577E0,9.871535107E0
4.105019667E0,3.344046021E-1,5.965095520E-1,9.864187317E0,9.887863344E0
4.115050667E0,3.294648743E-1,5.816903687E-1,9.876910858E0,9.899509023E0
4.125082667E0,3.281176758E-1,5.652246094E-1,9.917177124E0,9.938689158E0
4.135113667E0,3.409909058E-1,5.530998230E-1,9.930948486E0,9.952182276E0
4.145145667E0,3.372486877E-1,5.496569824E-1,9.893077240E0,9.914072662E0
4.155176667E0,3.137475586E-1,5.420228577E-1,9.845775604E0,9.865674004E0
4.165208667E0,2.896476746E-1,5.301974487E-1,9.793085175E0,9.811703336E0
4.175240667E0,2.885998535E-1,5.304968262E-1,9.792785797E0,9.811389832E0
4.185271667E0,2.935395813E-1,5.089416504E-1,9.814790039E0,9.832359361E0
4.195303667E0,3.098556519E-1,5.031037903E-1,9.843230896E0,9.860949164E0
4.205334667E0,3.260220337E-1,4.776567078E-1,9.843829651E0,9.860802629E0
4.215366667E0,3.311114502E-1,4.911286926E-1,9.846973114E0,9.864771751E0
4.225397667E0,3.261717224E-1,5.081932068E-1,9.825867004E0,9.844405046E0
4.235429667E0,3.200344849E-1,5.210664368E-1,9.809401245E0,9.828442658E0
4.245460667E0,3.125500488E-1,5.424719238E-1,9.801018677E0,9.820994370E0
4.255492667E0,3.121009827E-1,5.405259705E-1,9.836045837E0,9.855829395E0
4.265523667E0,3.112028503E-1,5.496569824E-1,9.850415955E0,9.870646610E0
4.275555667E0,3.228785706E-1,5.535488892E-1,9.842332764E0,9.863172977E0
4.285587667E0,3.210823059E-1,5.381309509E-1,9.867630157E0,9.887507456E0
4.295618667E0,3.204835510E-1,5.469625854E-1,9.858349457E0,9.878711039E0
4.305650667E0,3.216810608E-1,5.390290833E-1,9.860445099E0,9.880405285E0
4.315681667E0,3.085084534E-1,5.441184998E-1,9.853559418E0,9.873392305E0
4.325713667E0,2.833607483E-1,5.450166321E-1,9.859247589E0,9.878365222E0
4.335744667E0,2.902464294E-1,5.565426636E-1,9.877359924E0,9.897283557E0
4.345776667E0,3.125500488E-1,5.668711853E-1,9.883796539E0,9.904971706E0
4.355807667E0,3.231779480E-1,5.719606018E-1,9.869576111E0,9.891416255E0
4.365839667E0,3.363505554E-1,5.767506409E-1,9.816885681E0,9.839563886E0
4.375870667E0,3.233276367E-1,5.563929749E-1,9.765542450E0,9.786722293E0
4.385902667E0,3.077600098E-1,5.554948425E-1,9.771679688E0,9.792293636E0
4.395933667E0,2.950364685E-1,5.251080322E-1,9.818083191E0,9.836541186E0
4.405965667E0,2.670446777E-1,5.075944519E-1,9.867181091E0,9.883836688E0
4.415997667E0,2.968327332E-1,5.128335571E-1,9.886041870E0,9.903783711E0
4.426028667E0,3.097059631E-1,5.110372925E-1,9.870773621E0,9.888844663E0
4.436060667E0,3.218307495E-1,5.333409119E-1,9.864037628E0,9.883686857E0
4.446091667E0,3.432362366E-1,5.432203674E-1,9.839488678E0,9.860448110E0
4.456123667E0,3.288661194E-1,5.435197449E-1,9.849368134E0,9.869833801E0
4.466154667E0,3.312611389E-1,5.322930908E-1,9.904752960E0,9.924575612E0
4.476186667E0,3.646417236E-1,5.090913391E-1,9.891131287E0,9.910934149E0
4.486217667E0,3.367996216E-1,5.098397827E-1,9.758656769E0,9.777768279E0
4.496249667E0,2.534230042E-1,4.911286926E-1,9.699080658E0,9.714813237E0
4.506280667E0,2.068698120E-1,4.770579529E-1,9.749974823E0,9.763830624E0
4.516312667E0,2.293231201E-1,4.496649170E-1,9.796827393E0,9.809822353E0
4.526344667E0,2.498304749E-1,4.421804810E-1,9.836943970E0,9.850045965E0
4.536375667E0,2.746788025E-1,4.564009094E-1,9.809700623E0,9.824152714E0
4.546407667E0,2.814147949E-1,5.548960876E-1,9.747729492E0,9.767565419E0
4.556438667E0,3.067121887E-1,6.280938721E-1,9.723030853E0,9.748123063E0
4.566470667E0,3.394940186E-1,6.804849243E-1,9.762997742E0,9.792570695E0
4.576501667E0,3.492237854E-1,7.030879211E-1,9.868977356E0,9.900151712E0
4.586533667E0,3.778143311E-1,6.852749634E-1,9.946965179E0,9.977698218E0
4.596564667E0,3.829037476E-1,6.439608765E-1,1.000998413E1,1.003798203E1
4.606596667E0,3.800596619E-1,6.143225098E-1,1.002779709E1,1.005378297E1
4.616627667E0,3.629951477E-1,5.427713013E-1,9.982291718E0,1.000362505E1
4.626659667E0,3.260220337E-1,4.942721558E-1,9.895771637E0,9.913470211E0
4.636691667E0,2.927911377E-1,4.788542175E-1,9.836345215E0,9.852345670E0
4.646722667E0,2.642005920E-1,4.721182251E-1,9.778715057E0,9.793669677E0
4.656754667E0,2.734812927E-1,4.971162415E-1,9.750124512E0,9.766618891E0
4.666785667E0,3.062631226E-1,5.158273315E-1,9.775122528E0,9.793512923E0
4.676817667E0,3.504212952E-1,5.361849976E-1,9.829908600E0,9.850755936E0
4.686848667E0,3.570075989E-1,5.376818848E-1,9.873018951E0,9.894092149E0
4.696880667E0,3.715274048E-1,5.192701721E-1,9.876611481E0,9.897228322E0
4.706911667E0,3.519181824E-1,5.102888489E-1,9.872120819E0,9.891562596E0
4.716943667E0,3.299139404E-1,5.020559692E-1,9.852062531E0,9.870361671E0
4.726974667E0,2.971321106E-1,5.008584595E-1,9.841434631E0,9.858650125E0
4.737006667E0,2.785707092E-1,5.146298218E-1,9.821376343E0,9.838794579E0
4.747038667E0,2.845582581E-1,5.301974487E-1,9.788295135E0,9.806773394E0
4.757069667E0,2.893482971E-1,5.608836365E-1,9.770631866E0,9.790993819E0
4.767101667E0,2.703378296E-1,5.846841431E-1,9.809550934E0,9.830677882E0
4.777132667E0,2.929408264E-1,6.090834045E-1,9.818981323E0,9.842214748E0
4.787164667E0,3.525169373E-1,6.098318481E-1,9.854307861E0,9.879450719E0
4.797195667E0,4.004173279E-1,5.947132874E-1,9.902208252E0,9.928129038E0
4.807227667E0,3.734733582E-1,5.658233643E-1,9.879455566E0,9.902690580E0
4.817258667E0,3.571572876E-1,5.508544922E-1,9.852661285E0,9.874509426E0
4.827290667E0,3.101550293E-1,5.483097839E-1,9.811646576E0,9.831848671E0
4.837321667E0,2.826123047E-1,5.348377991E-1,9.811347198E0,9.829977367E0
4.847353667E0,2.746788025E-1,5.388793945E-1,9.845925293E0,9.864486014E0
4.857384667E0,2.782713318E-1,5.536985779E-1,9.866732025E0,9.886173067E0
4.867416667E0,3.034190369E-1,5.631289673E-1,9.882000275E0,9.902681797E0
4.877448667E0,3.173400879E-1,5.786965942E-1,9.886191559E0,9.908197516E0
4.887479667E0,3.354524231E-1,5.646258545E-1,9.893675995E0,9.915450336E0
4.897511667E0,3.285667419E-1,5.629792786E-1,9.896520081E0,9.917964079E0
4.907542667E0,3.342549133E-1,5.532495117E-1,9.876461792E0,9.897591065E0
4.917574667E0,3.061134338E-1,5.390290833E-1,9.849517822E0,9.869004971E0
4.927605667E0,2.778222656E-1,5.348377991E-1,9.811047821E0,9.829542005E0
4.937637667E0,2.757266235E-1,5.056484985E-1,9.799821167E0,9.816730641E0
4.947668667E0,2.757266235E-1,4.739144897E-1,9.795480194E0,9.810813032E0
4.957700667E0,2.833607483E-1,4.857398987E-1,9.837692413E0,9.853752005E0
4.967731667E0,3.032693481E-1,4.816983032E-1,9.841284943E0,9.857732745E0
4.977763667E0,3.189866638E-1,4.815486145E-1,9.847272491E0,9.864198755E0
4.987795667E0,3.215313721E-1,5.028044128E-1,9.830058289E0,9.848159252E0
4.997826667E0,3.354524231E-1,5.113366699E-1,9.822124786E0,9.841144691E0
5.007858667E0,3.282673645E-1,5.453160095E-1,9.809401245E0,9.830029593E0
5.017889667E0,3.281176758E-1,5.590873718E-1,9.816436615E0,9.837818240E0
5.027921667E0,3.138972473E-1,5.658233643E-1,9.822274475E0,9.843564569E0
5.037952667E0,3.170407104E-1,5.704637146E-1,9.841584320E0,9.863200575E0
5.047984667E0,2.951861572E-1,5.662724304E-1,9.858050079E0,9.878711996E0
5.058015667E0,2.905458069E-1,5.590873718E-1,9.869426422E0,9.889518363E0
5.068047667E0,2.826123047E-1,5.508544922E-1,9.871971130E0,9.891366154E0
5.078078667E0,2.935395813E-1,5.495072937E-1,9.883796539E0,9.903411421E0
5.088110667E0,2.818638611E-1,5.604345703E-1,9.847721558E0,9.867682302E0
5.098142292E0,2.707868958E-1,5.502557373E-1,9.836794281E0,9.855893092E0
5.108173292E0,2.686912537E-1,5.619314575E-1,9.844727783E0,9.864412151E0
5.118205292E0,3.103047180E-1,5.815406799E-1,9.860744476E0,9.882750640E0
5.128236292E0,3.251239014E-1,5.724096680E-1,9.858948212E0,9.880901691E0
5.138268292E0,3.344046021E-1,5.827381897E-1,9.833052063E0,9.855979054E0
5.148299292E0,3.201841736E-1,5.716612244E-1,9.818981323E0,9.840818497E0
5.158331292E0,3.022215271E-1,5.528004456E-1,9.824370117E0,9.844550492E0
5.168362292E0,2.881507874E-1,5.218148804E-1,9.835746460E0,9.853792674E0
5.178394292E0,2.736309814E-1,5.090913391E-1,9.837093658E0,9.854058025E0
5.188425292E0,2.872526550E-1,5.161267090E-1,9.827663269E0,9.845398224E0
5.198457292E0,2.839595032E-1,5.282514954E-1,9.791288910E0,9.809639196E0
5.208489292E0,2.888992310E-1,5.363346863E-1,9.791139221E0,9.810072625E0
5.218520292E0,2.915936279E-1,5.492079163E-1,9.793683929E0,9.813404154E0
5.228552292E0,3.159928894E-1,5.487588501E-1,9.877359924E0,9.897637438E0
5.238583292E0,3.541635132E-1,5.430706787E-1,9.980944519E0,1.000198036E1
5.248615292E0,3.866459656E-1,5.287005615E-1,9.986932068E0,1.000838806E1
5.258646292E0,3.239263916E-1,4.939727783E-1,9.839039612E0,9.856755952E0
5.268678292E0,2.168989563E-1,4.707710266E-1,9.743238831E0,9.757016625E0
5.278709292E0,2.023791504E-1,4.746629333E-1,9.770931244E0,9.784546979E0
5.288741292E0,2.583627319E-1,5.028044128E-1,9.815538483E0,9.831803460E0
5.298772292E0,3.227288818E-1,5.201683044E-1,9.825867004E0,9.844917033E0
5.308804292E0,3.338058472E-1,5.445675659E-1,9.801916809E0,9.822706007E0
5.318835292E0,3.204835510E-1,5.827381897E-1,9.760453033E0,9.783084223E0
5.328867292E0,3.055146790E-1,6.153703308E-1,9.751322021E0,9.775494925E0
5.338899292E0,2.962339783E-1,6.653663635E-1,9.796528015E0,9.823564939E0
5.348930292E0,2.969824219E-1,6.755451965E-1,9.847871246E0,9.875481151E0
5.358962292E0,2.989283752E-1,6.878196716E-1,9.872420197E0,9.900865347E0
5.368993292E0,3.203338623E-1,6.713539124E-1,9.927805023E0,9.955633703E0
5.379025292E0,3.412902832E-1,6.427633667E-1,9.953102417E0,9.979672917E0
5.389056292E0,3.475772095E-1,5.836363220E-1,9.963430939E0,9.986560837E0
5.399088292E0,3.317102051E-1,5.352868652E-1,9.940229187E0,9.960156624E0
5.409119292E0,3.126997375E-1,5.028044128E-1,9.886041870E0,9.903757734E0
5.419151292E0,2.770738220E-1,4.751119995E-1,9.824220428E0,9.839604074E0
5.429182292E0,2.851570129E-1,4.812492371E-1,9.801467743E0,9.817417444E0
5.439214292E0,2.793191528E-1,5.001100159E-1,9.801916809E0,9.818640555E0
5.449246292E0,2.975811768E-1,5.197192383E-1,9.804012451E0,9.822287045E0
5.459277292E0,3.381468201E-1,5.415737915E-1,9.842781830E0,9.863467929E0
5.469309292E0,3.555107117E-1,5.513035583E-1,9.877958679E0,9.899716721E0
5.479340292E0,3.550616455E-1,5.532495117E-1,9.877060547E0,9.898913013E0
5.489372292E0,3.396437073E-1,5.674699402E-1,9.856852570E0,9.879014250E0
5.499403292E0,3.197351074E-1,5.429209900E-1,9.844877472E0,9.865019320E0
5.509435292E0,2.880010986E-1,5.459147644E-1,9.839488678E0,9.858828785E0
5.519466292E0,2.535726929E-1,5.583389282E-1,9.787696381E0,9.806887473E0
5.529498292E0,2.378553772E-1,5.679190063E-1,9.760752411E0,9.780153107E0
5.539529292E0,2.130070496E-1,5.680686951E-1,9.785750427E0,9.804539024E0
5.549561292E0,2.345622253E-1,5.839356995E-1,9.794881439E0,9.815075280E0
5.559592292E0,2.848576355E-1,5.647755432E-1,9.836345215E0,9.856662847E0
5.569624292E0,3.379971313E-1,5.655239868E-1,9.897118835E0,9.919023172E0
5.579656292E0,3.571572876E-1,5.876779175E-1,9.890083466E0,9.913963769E0
5.589687292E0,3.429368591E-1,5.806425476E-1,9.864486694E0,9.887509757E0
5.599719292E0,3.417393494E-1,5.664221191E-1,9.842781830E0,9.864987276E0
5.609750292E0,3.294648743E-1,5.855822754E-1,9.839189301E0,9.862104228E0
5.619782292E0,3.510200500E-1,6.027964783E-1,9.864786072E0,9.889417724E0
5.629813292E0,3.290158081E-1,6.047424316E-1,9.885143738E0,9.909088330E0
5.639845292E0,3.222798157E-1,6.325845337E-1,9.872270508E0,9.897765023E0
5.649876292E0,3.236270142E-1,6.147715759E-1,9.885293427E0,9.909677324E0
5.659908292E0,3.086581421E-1,5.932164001E-1,9.889035645E0,9.911619521E0
5.669939292E0,2.995271301E-1,5.828878784E-1,9.876611481E0,9.898329613E0
5.679971292E0,2.853067017E-1,5.686674500E-1,9.842781830E0,9.863322804E0
5.690003292E0,2.709365845E-1,5.554948425E-1,9.815239105E0,9.834678431E0
5.700034292E0,2.615061951E-1,5.321434021E-1,9.798174591E0,9.816098380E0
5.710066292E0,2.686912537E-1,5.303471375E-1,9.796677704E0,9.814701071E0
5.720097292E0,2.832110596E-1,5.101391602E-1,9.821675720E0,9.838992043E0
5.730129292E0,2.954855347E-1,4.992118835E-1,9.841883698E0,9.858965408E0
5.740160292E0,3.140469360E-1,5.016069031E-1,9.841734009E0,9.859511310E0
5.750192292E0,3.362008667E-1,5.040019226E-1,9.833201752E0,9.851847829E0
5.760223292E0,3.336561584E-1,5.239105225E-1,9.829160156E0,9.848766321E0
5.770255292E0,3.305126953E-1,5.360353088E-1,9.823022919E0,9.843188089E0
5.780286292E0,3.269201660E-1,5.577401733E-1,9.804910583E0,9.826200814E0
5.790318292E0,3.098556519E-1,5.746549988E-1,9.815388794E0,9.837077618E0
5.800350292E0,2.802172852E-1,5.782475281E-1,9.845176849E0,9.866123815E0
5.810381292E0,2.734812927E-1,5.697152710E-1,9.843829651E0,9.864093963E0
5.820413292E0,2.758763123E-1,5.766009521E-1,9.854457550E0,9.875166328E0
5.830444292E0,2.839595032E-1,5.771997070E-1,9.860594788E0,9.881554638E0
5.840476292E0,2.814147949E-1,5.830375671E-1,9.862840118E0,9.884065069E0
5.850507292E0,2.839595032E-1,5.870791626E-1,9.859846344E0,9.881389825E0
5.860539292E0,2.674937439E-1,5.783972168E-1,9.854906616E0,9.875488882E0
5.870570292E0,2.604583740E-1,5.746549988E-1,9.845326538E0,9.865521860E0
5.880602292E0,2.534230042E-1,5.757028198E-1,9.840835876E0,9.860918198E0
5.890633292E0,2.480342102E-1,5.647755432E-1,9.867630157E0,9.886891185E0
5.900665292E0,2.627037048E-1,5.740562439E-1,9.880503387E0,9.900651544E0
5.910697292E0,2.884501648E-1,5.662724304E-1,9.873018951E0,9.893450924E0
5.920728292E0,3.269201660E-1,5.939648438E-1,9.813293152E0,9.836686104E0
5.930760292E0,3.341052246E-1,5.876779175E-1,9.793534241E0,9.816837809E0
5.940791292E0,3.138972473E-1,5.837860107E-1,9.768835602E0,9.791296472E0
5.950823292E0,2.784210205E-1,5.632786560E-1,9.792037354E0,9.812175938E0
5.960854292E0,2.779719543E-1,5.444178772E-1,9.834998016E0,9.853976112E0
5.970886292E0,2.778222656E-1,5.361849976E-1,9.877808990E0,9.896251311E0
5.980917292E0,2.769241333E-1,5.216651917E-1,9.849218445E0,9.866910637E0
5.990949292E0,2.764750671E-1,5.339396667E-1,9.819131012E0,9.837523258E0
6.000980292E0,2.802172852E-1,5.345384216E-1,9.804611206E0,9.823169242E0
6.011012292E0,3.065625000E-1,5.366340637E-1,9.871072998E0,9.890401348E0
6.021043292E0,3.468287659E-1,5.292993164E-1,1.002480331E1,1.004475632E1
6.031075292E0,3.951782227E-1,5.465135193E-1,1.001013382E1,1.003282722E1
6.041107292E0,3.574566650E-1,5.444178772E-1,9.829309845E0,9.850862811E0
6.051138292E0,2.368075562E-1,5.245092773E-1,9.735604706E0,9.752598976E0
6.061170292E0,2.046244812E-1,5.245092773E-1,9.770033112E0,9.786241779E0
6.071201292E0,2.604583740E-1,5.254074097E-1,9.799222412E0,9.816753608E0
6.081233292E0,3.038681030E-1,5.426216125E-1,9.829609222E0,9.849263501E0
6.091264625E0,3.400927734E-1,5.415737915E-1,9.823471985E0,9.844265697E0
6.101296625E0,3.332070923E-1,5.670208740E-1,9.759405212E0,9.781540254E0
6.111327625E0,3.121009827E-1,6.007008362E-1,9.772278442E0,9.795696732E0
6.121359625E0,2.823129272E-1,6.303392029E-1,9.824968872E0,9.849215270E0
6.131390625E0,2.661465454E-1,6.563850403E-1,9.882000275E0,9.907351045E0
6.141422625E0,2.534230042E-1,6.792874146E-1,9.918374634E0,9.944838359E0
6.151454625E0,2.847079468E-1,6.641688538E-1,9.935588837E0,9.961832382E0
6.161485625E0,3.082090759E-1,6.658154297E-1,9.917626190E0,9.944727863E0
6.171517625E0,3.284170532E-1,6.346801758E-1,9.891131287E0,9.916912565E0
6.181548625E0,3.294648743E-1,5.840853882E-1,9.870474243E0,9.893228221E0
6.191580625E0,3.164419556E-1,5.468128967E-1,9.840686188E0,9.860945416E0
6.201611625E0,2.897973633E-1,5.306465149E-1,9.812993774E0,9.831602873E0
6.211643625E0,2.803669739E-1,5.102888489E-1,9.811646576E0,9.828906800E0
6.221674625E0,2.719844055E-1,5.099894714E-1,9.810000000E0,9.827011996E0
6.231706625E0,2.713856506E-1,5.074447632E-1,9.841734009E0,9.858543435E0
6.241737625E0,2.871029663E-1,5.084925842E-1,9.851014709E0,9.868307029E0
6.251769625E0,3.077600098E-1,5.141807556E-1,9.851912842E0,9.870120806E0
6.261800625E0,3.324586487E-1,5.267546082E-1,9.858349457E0,9.878008564E0
6.271832625E0,3.412902832E-1,5.517526245E-1,9.845476227E0,9.866828880E0
6.281864625E0,3.149450684E-1,5.641767883E-1,9.839788055E0,9.860979405E0
6.291895625E0,2.948867798E-1,5.679190063E-1,9.840686188E0,9.861470218E0
6.301927625E0,2.896476746E-1,5.905220032E-1,9.827064514E0,9.849051171E0
6.311958625E0,2.724334717E-1,5.989045715E-1,9.773475952E0,9.795597933E0
6.321990625E0,2.621049500E-1,6.153703308E-1,9.799222412E0,9.822023189E0
6.332021625E0,2.522254944E-1,6.405180359E-1,9.805958405E0,9.830091621E0
6.342053625E0,2.903961182E-1,6.315367126E-1,9.810898132E0,9.835491380E0
6.352084625E0,3.381468201E-1,5.981561279E-1,9.876461792E0,9.900334921E0
6.362116625E0,3.487747192E-1,5.861810303E-1,9.904303894E0,9.927763476E0
6.372147625E0,3.321592712E-1,5.601351929E-1,9.880952454E0,9.902388732E0
6.382179625E0,3.129991150E-1,5.513035583E-1,9.837093658E0,9.857500480E0
6.392211625E0,2.924917603E-1,5.496569824E-1,9.826465759E0,9.846172025E0
6.402242625E0,2.848576355E-1,5.757028198E-1,9.857301636E0,9.878206980E0
6.412274625E0,2.806663513E-1,5.999523926E-1,9.868977356E0,9.891179431E0
6.422305625E0,2.894979858E-1,6.107299805E-1,9.890083466E0,9.913150415E0
6.432337625E0,3.011737061E-1,6.102809143E-1,9.885443115E0,9.908841203E0
6.442368625E0,3.125500488E-1,6.105802917E-1,9.872120819E0,9.895921649E0
6.452400625E0,3.132984924E-1,5.996530151E-1,9.878707123E0,9.901848014E0
6.462431625E0,3.089575195E-1,6.029461670E-1,9.861792297E0,9.885036477E0
6.472463625E0,2.906954956E-1,5.887257385E-1,9.819580078E0,9.841506733E0
6.482494625E0,2.757266235E-1,5.727090454E-1,9.797875214E0,9.818471344E0
6.492526625E0,2.689906311E-1,5.617817688E-1,9.779613190E0,9.799427986E0
6.502558625E0,2.559677124E-1,5.417234802E-1,9.798623657E0,9.816924639E0
6.512589625E0,2.694396973E-1,5.248086548E-1,9.816137238E0,9.833848287E0
6.522621625E0,2.847079468E-1,5.174739075E-1,9.853709106E0,9.871394077E0
6.532652625E0,2.953358459E-1,5.089416504E-1,9.836045837E0,9.853630934E0
6.542684625E0,3.010240173E-1,5.201683044E-1,9.832153931E0,9.850504629E0
6.552715625E0,2.959346008E-1,5.385800171E-1,9.804910583E0,9.824149697E0
6.562747625E0,2.966830444E-1,5.689668274E-1,9.803862762E0,9.824839395E0
6.572778625E0,2.945874023E-1,5.764512634E-1,9.796977081E0,9.818341903E0
6.582810625E0,2.817141724E-1,5.758525085E-1,9.811347198E0,9.832268448E0
6.592841625E0,2.776725769E-1,5.863307190E-1,9.830357666E0,9.851741857E0
6.602873625E0,2.682421875E-1,5.917195129E-1,9.853709106E0,9.875103494E0
6.612904625E0,2.797682190E-1,5.998027039E-1,9.855505371E0,9.877703157E0
6.622936625E0,2.662962341E-1,5.998027039E-1,9.881551208E0,9.903319204E0
6.632968625E0,2.948867798E-1,5.932164001E-1,9.892628174E0,9.914784723E0
6.642999625E0,2.848576355E-1,5.920188904E-1,9.879156189E0,9.900977590E0
6.653031625E0,2.695893860E-1,5.851332092E-1,9.874964905E0,9.895958326E0
6.663062625E0,2.510279846E-1,5.743556213E-1,9.861792297E0,9.881692504E0
6.673094625E0,2.618055725E-1,5.707630920E-1,9.868528290E0,9.888486399E0
6.683125625E0,2.662962341E-1,5.990542603E-1,9.877210236E0,9.898942455E0
6.693157625E0,2.989283752E-1,6.159690857E-1,9.874066772E0,9.897776049E0
6.703188625E0,3.129991150E-1,6.209088135E-1,9.851014709E0,9.875524645E0
6.713220625E0,3.041674805E-1,6.161187744E-1,9.811197510E0,9.835228354E0
6.723251625E0,2.953358459E-1,5.806425476E-1,9.798324280E0,9.819955587E0
6.733283625E0,2.839595032E-1,5.649252319E-1,9.807754669E0,9.828114019E0
6.743315625E0,2.820135498E-1,5.456153870E-1,9.823022919E0,9.842205396E0
6.753346625E0,2.760260010E-1,5.337899780E-1,9.857301636E0,9.875602140E0
6.763378625E0,2.761756897E-1,5.466632080E-1,9.795929260E0,9.815056992E0
6.773409625E0,2.782713318E-1,5.459147644E-1,9.730515289E0,9.749789006E0
6.783441625E0,2.601589966E-1,5.562432861E-1,9.796378326E0,9.815605820E0
6.793472625E0,3.086581421E-1,5.631289673E-1,9.935289459E0,9.956021330E0
6.803504625E0,3.592529297E-1,5.755531311E-1,1.010458740E1,1.012733976E1
6.813535625E0,3.993695068E-1,5.840853882E-1,1.002091141E1,1.004586070E1
6.823567625E0,3.215313721E-1,5.755531311E-1,9.801916809E0,9.824063160E0
6.833598625E0,2.119592285E-1,5.610333252E-1,9.701325989E0,9.719846246E0
6.843630625E0,1.649569702E-1,5.629792786E-1,9.703571320E0,9.721288640E0
6.853661625E0,2.137554932E-1,5.736071777E-1,9.798623657E0,9.817725917E0
6.863693625E0,2.847079468E-1,5.655239868E-1,9.853709106E0,9.874029529E0
6.873725625E0,3.168910217E-1,5.682183838E-1,9.830806732E0,9.852312067E0
6.883756625E0,3.038681030E-1,5.695655823E-1,9.797875214E0,9.819119079E0
6.893788625E0,2.918930054E-1,5.888754272E-1,9.788744202E0,9.810784313E0
6.903819625E0,2.715353394E-1,6.215075684E-1,9.801767120E0,9.825204414E0
6.913851625E0,2.673440552E-1,6.530918884E-1,9.855804749E0,9.881036843E0
6.923882625E0,2.528242493E-1,6.694079590E-1,9.888436890E0,9.914293280E0
6.933914625E0,2.677931213E-1,6.972500610E-1,9.904004517E0,9.932128486E0
6.943945625E0,2.839595032E-1,6.870712280E-1,9.907896423E0,9.935749162E0
6.953977625E0,3.167413330E-1,6.819818115E-1,9.903106384E0,9.931613178E0
6.964008625E0,3.294648743E-1,6.348298645E-1,9.887987823E0,9.913821627E0
6.974040625E0,3.192860413E-1,5.807922363E-1,9.870923309E0,9.893148648E0
6.984072625E0,3.011737061E-1,5.484594727E-1,9.842931519E0,9.862799515E0
6.994103625E0,2.725831604E-1,5.162763977E-1,9.814490662E0,9.831839596E0
7.004135625E0,2.510279846E-1,5.180726624E-1,9.786947937E0,9.803864761E0
7.014166625E0,2.285746765E-1,5.117857361E-1,9.778715057E0,9.794765908E0
7.024198625E0,2.333647156E-1,5.120851135E-1,9.824519806E0,9.840623947E0
7.034229625E0,2.549198914E-1,5.345384216E-1,9.859846344E0,9.877615370E0
7.044261625E0,2.915936279E-1,5.454656982E-1,9.873617706E0,9.892971560E0
7.054292625E0,3.248245239E-1,5.610333252E-1,9.872420197E0,9.893682323E0
7.064324625E0,3.324586487E-1,5.646258545E-1,9.866732025E0,9.888464591E0
7.074355625E0,3.338058472E-1,5.779481506E-1,9.855355682E0,9.877929238E0
7.084387625E0,3.149450684E-1,6.053411865E-1,9.850415955E0,9.874022626E0
7.094419375E0,2.854563904E-1,6.361770630E-1,9.805060272E0,9.829822661E0
7.104450375E0,2.311193848E-1,6.292913818E-1,9.796977081E0,9.819887155E0
7.114482375E0,1.965412903E-1,6.489006042E-1,9.795480194E0,9.818917084E0
7.124513375E0,2.183958435E-1,6.503974915E-1,9.801916809E0,9.825898777E0
7.134545375E0,2.642005920E-1,6.203100586E-1,9.846823425E0,9.869879335E0
7.144576375E0,3.150947571E-1,6.084846497E-1,9.868528290E0,9.892289365E0
7.154608375E0,3.230282593E-1,5.912704468E-1,9.869875488E0,9.892845402E0
7.164639375E0,3.273692322E-1,5.786965942E-1,9.844428406E0,9.866855173E0
7.174671375E0,2.971321106E-1,5.821394348E-1,9.845176849E0,9.866847572E0
7.184702375E0,2.722837830E-1,6.010002136E-1,9.857750702E0,9.879807114E0
7.194734375E0,2.677931213E-1,6.020480347E-1,9.868378601E0,9.890352431E0
7.204765375E0,2.544708252E-1,6.237528992E-1,9.876461792E0,9.899410114E0
7.214797375E0,2.754272461E-1,6.105802917E-1,9.856553192E0,9.879286882E0
7.224829375E0,2.959346008E-1,6.093827820E-1,9.858499146E0,9.881747318E0
7.234860375E0,3.029699707E-1,5.998027039E-1,9.886341248E0,9.909152201E0
7.244892375E0,3.144960022E-1,5.959107971E-1,9.870923309E0,9.893894299E0
7.254923375E0,2.990780640E-1,5.906716919E-1,9.845176849E0,9.867413437E0
7.264955375E0,2.848576355E-1,5.923182678E-1,9.816735992E0,9.838713856E0
7.274986375E0,2.547702026E-1,5.742059326E-1,9.806706848E0,9.826806171E0
7.285018375E0,2.383044434E-1,5.587879944E-1,9.789342957E0,9.808173558E0
7.295049375E0,2.459385681E-1,5.427713013E-1,9.808802490E0,9.826886219E0
7.305081375E0,2.639012146E-1,5.322930908E-1,9.816137238E0,9.834100368E0
7.315112375E0,2.748284912E-1,5.231620789E-1,9.825567627E0,9.843323039E0
7.325144375E0,2.863545227E-1,5.128335571E-1,9.837393036E0,9.854912425E0
7.335176375E0,2.942880249E-1,5.370831299E-1,9.824220428E0,9.843290647E0
7.345207375E0,2.905458069E-1,5.659730530E-1,9.821076965E0,9.841661197E0
7.355239375E0,2.930905151E-1,5.882766724E-1,9.835447083E0,9.857382554E0
7.365270375E0,2.891986084E-1,6.004014587E-1,9.847571869E0,9.870095717E0
7.375302375E0,2.758763123E-1,5.935157776E-1,9.851763153E0,9.873479931E0
7.385333375E0,2.529739380E-1,6.111790466E-1,9.859996033E0,9.882158540E0
7.395365375E0,2.612068176E-1,6.104306030E-1,9.856253815E0,9.878592703E0
7.405396375E0,2.633024597E-1,6.024971008E-1,9.873767395E0,9.895636084E0
7.415428375E0,2.532733154E-1,6.216572571E-1,9.869426422E0,9.892228415E0
7.425459375E0,2.621049500E-1,6.222560120E-1,9.846524048E0,9.869647277E0
7.435491375E0,2.335144043E-1,6.200106812E-1,9.817783813E0,9.840112867E0
7.445523375E0,2.275268555E-1,6.099815369E-1,9.817933502E0,9.839495119E0
7.455554375E0,2.418969727E-1,6.180647278E-1,9.859546967E0,9.881861390E0
7.465586375E0,2.926414490E-1,6.309379578E-1,9.881551208E0,9.905996972E0
7.475617375E0,2.945874023E-1,6.581813049E-1,9.845027161E0,9.871400314E0
7.485649375E0,2.920426941E-1,6.634204102E-1,9.800719299E0,9.827487693E0
7.495680375E0,2.761756897E-1,6.484515381E-1,9.795180817E0,9.820505569E0
7.505712375E0,2.644999695E-1,6.197113037E-1,9.792785797E0,9.815938875E0
7.515743375E0,2.487826538E-1,5.914201355E-1,9.824968872E0,9.845896806E0
7.525775375E0,2.553689575E-1,5.620811462E-1,9.848619690E0,9.867951070E0
7.535806375E0,2.550695801E-1,5.525010681E-1,9.818532257E0,9.837372292E0
7.545838375E0,2.456391907E-1,5.516029358E-1,9.757010193E0,9.775676566E0
7.555869375E0,2.489323425E-1,5.604345703E-1,9.807754669E0,9.826907238E0
7.565901375E0,2.862048340E-1,5.800437927E-1,9.954748993E0,9.975740149E0
7.575933375E0,3.582051086E-1,5.815406799E-1,1.008602600E1,1.010912563E1
7.585964375E0,3.613485718E-1,5.917195129E-1,9.998158722E0,1.002216956E1
7.595996375E0,2.941383362E-1,5.794450378E-1,9.800868988E0,9.822388041E0
7.606027375E0,2.004331970E-1,5.827381897E-1,9.692943420E0,9.712513033E0
7.616059375E0,1.751358032E-1,5.866300964E-1,9.702224121E0,9.721520473E0
7.626090375E0,2.106120300E-1,5.897735596E-1,9.798324280E0,9.818317013E0
7.636122375E0,2.782713318E-1,5.804928589E-1,9.860295410E0,9.881286984E0
7.646153375E0,3.204835510E-1,5.858816528E-1,9.855954437E0,9.878552773E0
7.656185375E0,3.267704773E-1,5.763015747E-1,9.832153931E0,9.854448405E0
7.666216375E0,2.945874023E-1,5.866300964E-1,9.817634125E0,9.839555702E0
7.676248375E0,2.689906311E-1,6.224057007E-1,9.841734009E0,9.865063260E0
7.686280375E0,2.568658447E-1,6.483018494E-1,9.873168640E0,9.897764108E0
7.696311375E0,2.480342102E-1,6.960525513E-1,9.889784088E0,9.917350424E0
7.706343375E0,2.522254944E-1,7.087760925E-1,9.886341248E0,9.914924332E0
7.716374375E0,2.668949890E-1,7.225474548E-1,9.880054321E0,9.910034367E0
7.726406375E0,2.930905151E-1,7.259902954E-1,9.888287201E0,9.919233223E0
7.736437375E0,3.023712158E-1,6.839277649E-1,9.866582336E0,9.894879107E0
7.746469375E0,2.993774414E-1,6.500981140E-1,9.847422180E0,9.873397490E0
7.756500375E0,2.929408264E-1,5.960604858E-1,9.826166382E0,9.848586101E0
7.766532375E0,2.671943665E-1,5.827381897E-1,9.825567627E0,9.846459050E0
7.776563375E0,2.345622253E-1,5.560935974E-1,9.796228638E0,9.814802853E0
7.786595375E0,2.203417969E-1,5.414241028E-1,9.782756653E0,9.800205013E0
7.796627375E0,2.170486450E-1,5.345384216E-1,9.787546692E0,9.804535261E0
7.806658375E0,2.288740540E-1,5.390290833E-1,9.806407471E0,9.823877196E0
7.816690375E0,2.670446777E-1,5.514532471E-1,9.858648834E0,9.877670291E0
7.826721375E0,3.002755737E-1,5.689668274E-1,9.870324554E0,9.891268649E0
7.836753375E0,2.972817993E-1,5.852828979E-1,9.871821442E0,9.893623761E0
7.846784375E0,2.965333557E-1,6.060896301E-1,9.862540741E0,9.885594901E0
7.856816375E0,3.052153015E-1,6.158193970E-1,9.857750702E0,9.881681983E0
7.866847375E0,2.631527710E-1,6.360273743E-1,9.795779572E0,9.819932669E0
7.876879375E0,2.149530029E-1,6.469546509E-1,9.765991516E0,9.789757168E0
7.886910375E0,1.880090332E-1,6.691085815E-1,9.786498871E0,9.811147427E0
7.896942375E0,1.983375549E-1,6.730004883E-1,9.792187042E0,9.817290589E0
7.906973375E0,2.436932373E-1,6.530918884E-1,9.863438873E0,9.888040343E0
7.917005375E0,3.076103210E-1,6.348298645E-1,9.924062805E0,9.949103257E0
7.927037375E0,3.171903992E-1,6.146218872E-1,9.902058563E0,9.926184242E0
7.937068375E0,3.020718384E-1,5.969586182E-1,9.855056305E0,9.877739709E0
7.947100375E0,2.891986084E-1,5.945635986E-1,9.828262024E0,9.850475934E0
7.957131375E0,2.824626160E-1,6.089337158E-1,9.844578094E0,9.867436509E0
7.967163375E0,2.676434326E-1,6.240522766E-1,9.865085449E0,9.888426830E0
7.977194375E0,2.559677124E-1,6.370751953E-1,9.890083466E0,9.913885980E0
7.987226375E0,2.625540161E-1,6.548881531E-1,9.873917084E0,9.899093478E0
7.997257375E0,2.668949890E-1,6.500981140E-1,9.849667511E0,9.874705594E0
8.007289375E0,2.779719543E-1,6.430627441E-1,9.857451324E0,9.882314745E0
8.017320375E0,2.823129272E-1,6.327342224E-1,9.884395294E0,9.908648925E0
8.027352375E0,2.800675964E-1,6.267466736E-1,9.875264282E0,9.899095610E0
8.037384375E0,2.776725769E-1,6.230044556E-1,9.825867004E0,9.849512628E0
8.047415375E0,2.579136658E-1,6.135740662E-1,9.805958405E0,9.828520378E0
8.057447375E0,2.282752991E-1,6.005511475E-1,9.794132996E0,9.815182751E0
8.067478375E0,2.468367004E-1,5.743556213E-1,9.787097626E0,9.807043014E0
8.077510375E0,2.368075562E-1,5.647755432E-1,9.810598755E0,9.829694663E0
8.087541375E0,2.526745605E-1,5.667214966E-1,9.850865021E0,9.870388004E0
8.097573417E0,2.790197754E-1,5.584886169E-1,9.864037628E0,9.883774578E0
8.107604417E0,2.881507874E-1,5.712121582E-1,9.835147705E0,9.855934486E0
8.117636417E0,2.630030823E-1,5.801934814E-1,9.810000000E0,9.830660969E0
8.127667417E0,2.591111755E-1,5.728587341E-1,9.822573853E0,9.842675592E0
8.137699417E0,2.523751831E-1,5.902226257E-1,9.833501129E0,9.854430498E0
8.147731417E0,2.519261169E-1,5.956114197E-1,9.821226654E0,9.842495249E0
8.157762417E0,2.586621094E-1,6.098318481E-1,9.852661285E0,9.874904322E0
8.167794417E0,2.600093079E-1,6.405180359E-1,9.869725800E0,9.893904970E0
8.177825417E0,2.625540161E-1,6.200106812E-1,9.868228912E0,9.891172313E0
8.187857417E0,2.401007080E-1,6.236032104E-1,9.853858795E0,9.876490392E0
8.197888417E0,2.171983337E-1,6.249504089E-1,9.836943970E0,9.859168565E0
8.207920417E0,2.101629639E-1,6.147715759E-1,9.840386810E0,9.861811453E0
8.217951417E0,2.282752991E-1,6.369255066E-1,9.878557434E0,9.901700899E0
8.227983417E0,2.544708252E-1,6.595285034E-1,9.879305878E0,9.904565507E0
8.238014417E0,2.769241333E-1,6.764433289E-1,9.845326538E0,9.872422053E0
8.248046417E0,2.844085693E-1,6.914122009E-1,9.806108093E0,9.834566335E0
8.258078417E0,2.758763123E-1,6.783892822E-1,9.778565369E0,9.805950256E0
8.268109417E0,2.553689575E-1,6.406677246E-1,9.809251556E0,9.833467574E0
8.278141417E0,2.468367004E-1,6.102809143E-1,9.837991791E0,9.859992577E0
8.288172417E0,2.501298523E-1,5.670208740E-1,9.865684204E0,9.885130370E0
8.298204417E0,2.534230042E-1,5.545967102E-1,9.803563385E0,9.822507611E0
8.308235417E0,2.441423035E-1,5.474116516E-1,9.761351166E0,9.779736273E0
8.318267417E0,2.489323425E-1,5.635780334E-1,9.823921051E0,9.843221644E0
8.328298417E0,2.933898926E-1,5.736071777E-1,9.946965179E0,9.967809143E0
8.338330417E0,3.486250305E-1,6.047424316E-1,1.008707382E1,1.011119731E1
8.348361417E0,3.549119568E-1,6.180647278E-1,9.977950745E0,1.000337281E1
8.358393417E0,2.900967407E-1,6.122268677E-1,9.768236847E0,9.791702046E0
8.368425417E0,1.836680603E-1,6.156697083E-1,9.659113770E0,9.680457735E0
8.378456417E0,1.598675537E-1,6.146218872E-1,9.689201202E0,9.709991640E0
8.388488417E0,2.061213684E-1,6.230044556E-1,9.785001984E0,9.806981411E0
8.398519417E0,2.619552612E-1,6.010002136E-1,9.857451324E0,9.879229141E0
8.408551417E0,3.041674805E-1,5.836363220E-1,9.849817200E0,9.871780391E0
8.418582417E0,3.016227722E-1,5.578898621E-1,9.816586304E0,9.837051593E0
8.428614417E0,2.721340942E-1,5.797444153E-1,9.825717316E0,9.846566981E0
8.438645417E0,2.454895020E-1,6.216572571E-1,9.843679962E0,9.866344715E0
8.448677417E0,2.353106689E-1,6.566844177E-1,9.872420197E0,9.897034206E0
8.458708417E0,2.230361938E-1,6.885681152E-1,9.899214478E0,9.925639449E0
8.468740417E0,2.326162720E-1,7.171586609E-1,9.891430664E0,9.920122351E0
8.478771417E0,2.573149109E-1,7.292834473E-1,9.869127045E0,9.899380482E0
8.488803417E0,2.644999695E-1,7.229965210E-1,9.866732025E0,9.896720925E0
8.498835417E0,2.749781799E-1,6.737489319E-1,9.862989807E0,9.889798712E0
8.508866417E0,2.844085693E-1,6.411167908E-1,9.879305878E0,9.904171020E0
8.518898417E0,2.859054565E-1,6.156697083E-1,9.849368134E0,9.872732335E0
8.528929417E0,2.583627319E-1,5.745053101E-1,9.834548950E0,9.854702467E0
8.538961417E0,2.354603577E-1,5.536985779E-1,9.813143463E0,9.831572017E0
8.548992417E0,2.037263489E-1,5.438191223E-1,9.791588287E0,9.808794261E0
8.559024417E0,1.920506287E-1,5.372328186E-1,9.788893890E0,9.805505910E0
8.569055417E0,2.308200073E-1,5.469625854E-1,9.825867004E0,9.843785265E0
8.579087417E0,2.619552612E-1,5.689668274E-1,9.859696655E0,9.879572964E0
8.589119417E0,2.912942505E-1,5.824388123E-1,9.877060547E0,9.898505562E0
8.599150417E0,3.085084534E-1,5.992039490E-1,9.884095917E0,9.907046731E0
8.609182417E0,2.942880249E-1,6.141728210E-1,9.867779846E0,9.891253348E0
8.619213417E0,2.824626160E-1,6.361770630E-1,9.852960663E0,9.877516905E0
8.629245417E0,2.522254944E-1,6.400689697E-1,9.775721283E0,9.799899621E0
8.639276417E0,2.062710571E-1,6.517446899E-1,9.775421906E0,9.799295501E0
8.649308417E0,1.758842468E-1,6.632707214E-1,9.782906342E0,9.806942429E0
8.659339417E0,1.859133911E-1,6.725514221E-1,9.789193268E0,9.814030469E0
8.669371417E0,2.374063110E-1,6.565347290E-1,9.884095917E0,9.908720992E0
8.679402417E0,2.881507874E-1,6.439608765E-1,9.909093933E0,9.934176315E0
8.689434417E0,2.878514099E-1,6.132746887E-1,9.889185333E0,9.912363534E0
8.699465417E0,2.933898926E-1,5.915698242E-1,9.858648834E0,9.880738298E0
8.709497417E0,2.790197754E-1,5.830375671E-1,9.840386810E0,9.861592033E0
8.719529417E0,2.679428101E-1,5.995033264E-1,9.842332764E0,9.864213695E0
8.729560417E0,2.704875183E-1,6.271957397E-1,9.866732025E0,9.890345740E0
8.739592417E0,2.456391907E-1,6.447093201E-1,9.860894165E0,9.884999871E0
8.749623417E0,2.568658447E-1,6.489006042E-1,9.863738251E0,9.888396449E0
8.759655417E0,2.606080627E-1,6.647676086E-1,9.855954437E0,9.881784778E0
8.769686417E0,2.679428101E-1,6.402186584E-1,9.882000275E0,9.906341540E0
8.779718417E0,2.627037048E-1,6.237528992E-1,9.884844360E0,9.907988138E0
8.789749417E0,2.607577515E-1,6.140231323E-1,9.857601013E0,9.880147608E0
8.799781417E0,2.514770508E-1,6.053411865E-1,9.821076965E0,9.842927990E0
8.809812417E0,2.275268555E-1,5.917195129E-1,9.785001984E0,9.805517032E0
8.819844417E0,2.402503967E-1,5.748046875E-1,9.789792023E0,9.809594718E0
8.829876417E0,2.356100464E-1,5.773493958E-1,9.802216187E0,9.822030675E0
8.839907417E0,2.438429260E-1,5.776487732E-1,9.830058289E0,9.850034692E0
8.849939417E0,2.606080627E-1,5.710624695E-1,9.852810974E0,9.872786486E0
8.859970417E0,2.785707092E-1,5.722599792E-1,9.860594788E0,9.881113940E0
8.870002417E0,2.621049500E-1,5.852828979E-1,9.833351440E0,9.854240490E0
8.880033417E0,2.465373230E-1,5.879772949E-1,9.813293152E0,9.833982939E0
8.890065417E0,2.345622253E-1,5.936654663E-1,9.812395020E0,9.833135519E0
8.900096417E0,2.567161560E-1,6.038442993E-1,9.829908600E0,9.851783301E0
8.910128417E0,2.405497742E-1,6.113287354E-1,9.812694397E0,9.834661069E0
8.920159417E0,2.365081787E-1,6.183641052E-1,9.834548950E0,9.856807969E0
8.930191417E0,2.475851440E-1,6.333329773E-1,9.848020935E0,9.871470276E0
8.940223417E0,2.356100464E-1,6.391708374E-1,9.868827667E0,9.892310700E0
8.950254417E0,2.225871277E-1,6.426136780E-1,9.865384827E0,9.888797457E0
8.960286417E0,2.112107849E-1,6.345304871E-1,9.832752686E0,9.855468751E0
8.970317417E0,1.992356873E-1,6.292913818E-1,9.822573853E0,9.844727502E0
8.980349417E0,2.089654541E-1,6.255491638E-1,9.835896149E0,9.857983129E0
8.990380417E0,2.204914856E-1,6.493496704E-1,9.870025177E0,9.893819712E0
9.000412417E0,2.733316040E-1,6.500981140E-1,9.882299652E0,9.907430754E0
9.010443417E0,2.926414490E-1,6.665638733E-1,9.858648834E0,9.885489530E0
9.020475417E0,2.782713318E-1,6.646179199E-1,9.830507355E0,9.856877130E0
9.030506417E0,2.564167786E-1,6.256988525E-1,9.816436615E0,9.839699001E0
9.040538417E0,2.288740540E-1,6.054908752E-1,9.813143463E0,9.834469338E0
9.050570417E0,2.285746765E-1,5.694158936E-1,9.828112335E0,9.847246971E0
9.060601417E0,2.239343262E-1,5.664221191E-1,9.847122803E0,9.865941825E0
9.070633417E0,2.284249878E-1,5.411247253E-1,9.774374084E0,9.792006060E0
9.080664417E0,2.317181396E-1,5.530998230E-1,9.775571594E0,9.793947759E0
9.090696417E0,2.594105530E-1,5.751040649E-1,9.879904633E0,9.900027983E0
9.100726917E0,3.047662354E-1,5.917195129E-1,1.002016296E1,1.004224478E1
9.110758917E0,3.644920349E-1,6.122268677E-1,1.009440857E1,1.011952373E1
9.120789917E0,3.245251465E-1,6.191125488E-1,9.917626190E0,9.942229436E0
9.130821917E0,2.255809021E-1,6.108796692E-1,9.712552643E0,9.734358713E0
9.140852917E0,1.202000427E-1,6.032455444E-1,9.658215637E0,9.677782935E0
9.150884917E0,1.276844788E-1,6.116281128E-1,9.714049530E0,9.734122998E0
9.160916917E0,1.933978271E-1,6.021977234E-1,9.795031128E0,9.815430689E0
9.170947917E0,2.887495422E-1,5.965095520E-1,9.853559418E0,9.875820631E0
9.180979917E0,3.276686096E-1,5.650749207E-1,9.851763153E0,9.873394229E0
9.191010917E0,2.942880249E-1,5.592370605E-1,9.815089417E0,9.835412131E0
9.201042917E0,2.594105530E-1,6.050418091E-1,9.828112335E0,9.850135101E0
9.211073917E0,2.412982178E-1,6.406677246E-1,9.854158173E0,9.877910369E0
9.221105917E0,2.133064270E-1,6.713539124E-1,9.880802765E0,9.905881030E0
9.231136917E0,2.173480225E-1,6.996450806E-1,9.895771637E0,9.922854413E0
9.241168917E0,2.163002014E-1,7.268884277E-1,9.870923309E0,9.900014118E0
9.251199917E0,2.269281006E-1,7.188052368E-1,9.864037628E0,9.892796150E0
9.261231917E0,2.478845215E-1,6.831793213E-1,9.878407745E0,9.905105769E0
9.271262917E0,2.728825378E-1,6.426136780E-1,9.874216461E0,9.898867003E0
9.281294917E0,2.936892700E-1,5.872288513E-1,9.883796539E0,9.905580505E0
9.291326917E0,2.796185303E-1,5.623805237E-1,9.864337006E0,9.884310949E0
9.301357917E0,2.522254944E-1,5.408253479E-1,9.813143463E0,9.831271250E0
9.311389917E0,1.989363098E-1,5.426216125E-1,9.795929260E0,9.812963056E0
9.321420917E0,1.890568542E-1,5.397775269E-1,9.789792023E0,9.806484086E0
9.331452917E0,1.960922241E-1,5.457650757E-1,9.811945953E0,9.829068881E0
9.341483917E0,2.380050659E-1,5.498066711E-1,9.857002258E0,9.875192520E0
9.351515917E0,2.673440552E-1,5.658233643E-1,9.857002258E0,9.876847799E0
9.361546917E0,2.971321106E-1,5.791456604E-1,9.869576111E0,9.891017632E0
9.371578917E0,3.107537842E-1,5.860313416E-1,9.869576111E0,9.891841752E0
9.381609917E0,2.944377136E-1,6.044430542E-1,9.861642609E0,9.884535392E0
9.391641917E0,2.565664673E-1,6.303392029E-1,9.805958405E0,9.829545976E0
9.401673917E0,2.257305908E-1,6.393205261E-1,9.763596497E0,9.787108949E0
9.411704917E0,1.567240906E-1,6.587800598E-1,9.777068481E0,9.800490891E0
9.421736917E0,1.565744019E-1,6.774911499E-1,9.760602722E0,9.785339815E0
9.431767917E0,1.953437805E-1,6.716532898E-1,9.815388794E0,9.840281221E0
9.441799917E0,2.618055725E-1,6.399192810E-1,9.896370392E0,9.920493222E0
9.451830917E0,3.046165466E-1,6.105802917E-1,9.903256073E0,9.926735636E0
9.461862917E0,2.999761963E-1,5.751040649E-1,9.875413971E0,9.896692958E0
9.471893917E0,2.767744446E-1,5.707630920E-1,9.857151947E0,9.877541147E0
9.481925917E0,2.634521484E-1,5.933660889E-1,9.851014709E0,9.872384776E0
9.491956917E0,2.436932373E-1,6.008505249E-1,9.841883698E0,9.863218666E0
9.501988917E0,2.398013306E-1,6.228547668E-1,9.863887939E0,9.886442132E0
9.512020917E0,2.350112915E-1,6.432124329E-1,9.848769379E0,9.872548345E0
9.522051917E0,2.203417969E-1,6.376739502E-1,9.870474243E0,9.893504958E0
9.532083917E0,2.366578674E-1,6.355783081E-1,9.877958679E0,9.901213784E0
9.542114917E0,2.406994629E-1,6.289920044E-1,9.890981598E0,9.913883404E0
9.552146917E0,2.567161560E-1,6.116281128E-1,9.866282959E0,9.888555585E0
9.562177917E0,2.480342102E-1,5.992039490E-1,9.838889923E0,9.860239412E0
9.572209917E0,2.415975952E-1,5.864804077E-1,9.812993774E0,9.833472199E0
9.582240917E0,2.176473999E-1,5.662724304E-1,9.767338715E0,9.786160658E0
9.592272917E0,2.149530029E-1,5.614823914E-1,9.790989532E0,9.809431344E0
9.602303917E0,2.269281006E-1,5.587879944E-1,9.825717316E0,9.844209524E0
9.612335917E0,2.333647156E-1,5.568420410E-1,9.845476227E0,9.863971527E0
9.622367917E0,2.600093079E-1,5.571414185E-1,9.870174866E0,9.889305500E0
9.632398917E0,2.682421875E-1,5.683680725E-1,9.854607239E0,9.874628093E0
9.642430917E0,2.730322266E-1,5.710624695E-1,9.833052063E0,9.853404072E0
9.652461917E0,2.406994629E-1,5.845344543E-1,9.801168365E0,9.821533388E0
9.662493917E0,2.338137817E-1,5.863307190E-1,9.821226654E0,9.841491025E0
9.672524917E0,2.245330811E-1,6.005511475E-1,9.843829651E0,9.864687475E0
9.682556917E0,2.269281006E-1,6.312373352E-1,9.820328522E0,9.843211326E0
9.692587917E0,2.149530029E-1,6.321354675E-1,9.831854553E0,9.854499683E0
9.702619917E0,2.233355713E-1,6.316864014E-1,9.859247589E0,9.881987124E0
9.712650917E0,2.406994629E-1,6.192622375E-1,9.880353699E0,9.902666871E0
9.722682917E0,2.219883728E-1,6.059399414E-1,9.863139496E0,9.884227980E0
9.732714917E0,2.128573608E-1,6.059399414E-1,9.865384827E0,9.886267711E0
9.742745917E0,2.071691895E-1,6.129753113E-1,9.855804749E0,9.877021061E0
9.752777917E0,2.333647156E-1,6.325845337E-1,9.873917084E0,9.896911683E0
9.762808917E0,2.647993469E-1,6.491999817E-1,9.865384827E0,9.890267797E0
9.772840917E0,2.709365845E-1,6.595285034E-1,9.834099884E0,9.859914047E0
9.782871917E0,2.588117981E-1,6.505471802E-1,9.810000000E0,9.834952729E0
9.792903917E0,2.335144043E-1,6.306385803E-1,9.790241089E0,9.813310072E0
9.802934917E0,2.216889954E-1,5.867797852E-1,9.818382568E0,9.838398893E0
9.812966917E0,2.062710571E-1,5.459147644E-1,9.857601013E0,9.874860425E0
9.822997917E0,2.140548706E-1,5.304968262E-1,9.847422180E0,9.864024025E0
9.833029917E0,2.327659607E-1,5.360353088E-1,9.778116302E0,9.795563908E0
9.843061917E0,2.303709412E-1,5.367837524E-1,9.765093384E0,9.782548562E0
9.853092917E0,2.540217590E-1,5.685177612E-1,9.867181091E0,9.886809505E0
9.863124917E0,3.047662354E-1,6.020480347E-1,1.001462448E1,1.003733270E1
9.873155917E0,3.432362366E-1,6.277944946E-1,1.007539810E1,1.010077145E1
9.883187917E0,3.234773254E-1,6.117778015E-1,9.903705139E0,9.927854005E0
9.893218917E0,2.139051819E-1,6.050418091E-1,9.725126495E0,9.746277052E0
9.903250917E0,1.202000427E-1,5.890251160E-1,9.691446533E0,9.710073869E0
9.913281917E0,1.276844788E-1,5.894741821E-1,9.741592255E0,9.760246042E0
9.923313917E0,1.990859985E-1,5.929170227E-1,9.811197510E0,9.831112979E0
9.933344917E0,2.818638611E-1,5.797444153E-1,9.856852570E0,9.877909364E0
9.943376917E0,3.125500488E-1,5.578898621E-1,9.819879456E0,9.840678897E0
9.953408917E0,3.071612549E-1,5.965095520E-1,9.811197510E0,9.834112479E0
9.963439917E0,2.472857666E-1,6.140231323E-1,9.844877472E0,9.867106318E0
9.973471917E0,2.303709412E-1,6.521937561E-1,9.890083466E0,9.914241192E0
9.983502917E0,2.067201233E-1,6.804849243E-1,9.926158447E0,9.951603613E0
9.993534917E0,2.020797729E-1,7.156617737E-1,9.902357941E0,9.930241729E0
1.000356592E1,2.146536255E-1,7.259902954E-1,9.874964905E0,9.903942142E0
1.001359792E1,2.366578674E-1,7.042854309E-1,9.860894165E0,9.888845163E0
1.002362892E1,2.513273621E-1,6.876699829E-1,9.864486694E0,9.891620352E0
1.003366092E1,2.639012146E-1,6.324348450E-1,9.852062531E0,9.875867242E0
1.004369192E1,2.615061951E-1,5.945635986E-1,9.856104126E0,9.877483480E0
1.005372392E1,2.589614868E-1,5.748046875E-1,9.847122803E0,9.867283769E0
1.006375592E1,2.333647156E-1,5.498066711E-1,9.826914825E0,9.845049591E0
1.007378692E1,2.155517578E-1,5.578898621E-1,9.813293152E0,9.831501724E0
1.008381892E1,2.070195007E-1,5.492079163E-1,9.807904358E0,9.825450336E0
1.009385025E1,2.189945984E-1,5.593867493E-1,9.827214203E0,9.845557940E0
1.010388225E1,2.534230042E-1,5.737568665E-1,9.840985565E0,9.860954166E0
1.011391325E1,2.881507874E-1,5.727090454E-1,9.854906616E0,9.875738501E0
1.012394525E1,3.153941345E-1,6.020480347E-1,9.849068756E0,9.872491613E0
1.013397625E1,3.170407104E-1,6.101312256E-1,9.856253815E0,9.880208206E0
1.014400825E1,3.118016052E-1,6.161187744E-1,9.864486694E0,9.888625806E0
1.015403925E1,2.601589966E-1,6.399192810E-1,9.809401245E0,9.833693720E0
1.016407125E1,1.910028076E-1,6.610253906E-1,9.782906342E0,9.807073627E0
1.017410325E1,1.535806274E-1,6.795867920E-1,9.785301361E0,9.810073799E0
1.018413425E1,1.776805115E-1,6.972500610E-1,9.770482178E0,9.796940849E0
1.019416625E1,2.386038208E-1,6.744973755E-1,9.830956421E0,9.856956054E0
1.020419725E1,2.847079468E-1,6.574328613E-1,9.884395294E0,9.910325268E0
1.021422925E1,3.016227722E-1,6.288423157E-1,9.891730042E0,9.916286713E0
1.022426025E1,2.947370911E-1,6.042933655E-1,9.889035645E0,9.911864931E0
1.023429225E1,2.797682190E-1,5.953120422E-1,9.863139496E0,9.885048680E0
1.024432325E1,2.618055725E-1,5.918692017E-1,9.886490936E0,9.907651303E0
1.025435525E1,2.418969727E-1,6.065386963E-1,9.890682220E0,9.912214592E0
1.026438625E1,2.439926147E-1,6.099815369E-1,9.867330780E0,9.889177246E0
1.027441825E1,2.285746765E-1,6.249504089E-1,9.867031403E0,9.889444782E0
1.028445025E1,2.574645996E-1,6.207591248E-1,9.870174866E0,9.893026928E0
1.029448125E1,2.601589966E-1,6.412664795E-1,9.877359924E0,9.901572828E0
1.030451325E1,2.565664673E-1,6.324348450E-1,9.880802765E0,9.904345686E0
1.031454425E1,2.767744446E-1,6.117778015E-1,9.859397278E0,9.882236126E0
1.032457625E1,2.639012146E-1,6.155200195E-1,9.837093658E0,9.859864116E0
1.033460725E1,2.468367004E-1,5.860313416E-1,9.809700623E0,9.830289283E0
1.034463925E1,2.341131592E-1,5.526507568E-1,9.795031128E0,9.813402398E0
1.035467025E1,2.442919922E-1,5.548960876E-1,9.812694397E0,9.831406795E0
1.036470225E1,2.368075562E-1,5.454656982E-1,9.830956421E0,9.848924550E0
1.037473325E1,2.520758057E-1,5.331912231E-1,9.848320312E0,9.865964123E0
1.038476525E1,2.589614868E-1,5.357359314E-1,9.871671753E0,9.889589336E0
1.039479725E1,2.707868958E-1,5.514532471E-1,9.847422180E0,9.866567276E0
1.040482825E1,2.656974792E-1,5.795947266E-1,9.829160156E0,9.849817997E0
1.041486025E1,2.514770508E-1,5.810916138E-1,9.822424164E0,9.842810809E0
1.042489125E1,2.442919922E-1,5.905220032E-1,9.812095642E0,9.832884404E0
1.043492325E1,2.240840149E-1,6.054908752E-1,9.810898132E0,9.832118541E0
1.044495425E1,2.288740540E-1,5.966592407E-1,9.829160156E0,9.849912434E0
1.045498625E1,2.442919922E-1,6.194119263E-1,9.854457550E0,9.876926815E0
1.046501725E1,2.206411743E-1,6.122268677E-1,9.852661285E0,9.874129768E0
1.047504925E1,2.176473999E-1,6.017486572E-1,9.864786072E0,9.885518503E0
1.048508025E1,1.910028076E-1,5.959107971E-1,9.884694672E0,9.904482849E0
1.049511225E1,2.046244812E-1,6.027964783E-1,9.866432648E0,9.886947353E0
1.050514425E1,2.143542480E-1,6.390211487E-1,9.864636383E0,9.887636054E0
1.051517525E1,2.242337036E-1,6.586303711E-1,9.852960663E0,9.877495054E0
1.052520725E1,2.317181396E-1,6.722520447E-1,9.810149689E0,9.835885981E0
1.053523825E1,2.324665833E-1,6.682104492E-1,9.790540466E0,9.816069913E0
1.054527025E1,2.291734314E-1,6.447093201E-1,9.796228638E0,9.820095014E0
1.055530125E1,2.354603577E-1,5.924679565E-1,9.835746460E0,9.856387182E0
1.056533325E1,2.469863892E-1,5.557942200E-1,9.872869263E0,9.891585160E0
1.057536425E1,2.529739380E-1,5.330415344E-1,9.873018951E0,9.890633564E0
1.058539625E1,2.384541321E-1,5.140310669E-1,9.806706848E0,9.823064059E0
1.059542725E1,2.408491516E-1,5.363346863E-1,9.799970856E0,9.817590946E0
1.060545925E1,2.471360779E-1,5.487588501E-1,9.857601013E0,9.875956169E0
1.061549125E1,2.929408264E-1,5.730084229E-1,9.967921600E0,9.988674287E0
1.062552225E1,3.608995056E-1,5.947132874E-1,1.005025040E1,1.007429727E1
1.063555425E1,3.429368591E-1,5.733078003E-1,9.894873505E0,9.917399316E0
1.064558525E1,2.525248718E-1,5.658233643E-1,9.751322021E0,9.770987978E0
1.065561725E1,1.767823792E-1,5.571414185E-1,9.712253265E0,9.729826415E0
1.066564825E1,1.727407837E-1,5.607339478E-1,9.744436340E0,9.762084897E0
1.067568025E1,2.146536255E-1,5.716612244E-1,9.792935486E0,9.811954859E0
1.068571125E1,2.727328491E-1,5.797444153E-1,9.813742218E0,9.834633858E0
1.069574325E1,2.908451843E-1,6.005511475E-1,9.782457275E0,9.805188573E0
1.070577425E1,2.806663513E-1,6.264472961E-1,9.750723267E0,9.774856216E0
1.071580625E1,2.327659607E-1,6.503974915E-1,9.790540466E0,9.814880514E0
1.072583825E1,2.218386841E-1,6.807843018E-1,9.837991791E0,9.864013491E0
1.073586925E1,2.186952209E-1,7.072792053E-1,9.901908875E0,9.929545349E0
1.074590125E1,2.044747925E-1,7.135661316E-1,9.922116852E0,9.949843687E0
1.075593225E1,2.200424194E-1,6.884184265E-1,9.939929810E0,9.966169937E0
1.076596425E1,2.492317200E-1,6.575825500E-1,9.916129303E0,9.941033730E0
1.077599525E1,2.743794250E-1,6.135740662E-1,9.906549225E0,9.929323982E0
1.078602725E1,2.850073242E-1,5.742059326E-1,9.892478485E0,9.913227134E0
1.079605825E1,2.930905151E-1,5.309458923E-1,9.866282959E0,9.884904907E0
1.080609025E1,2.860551453E-1,5.221142578E-1,9.841584320E0,9.859574675E0
1.081612225E1,2.324665833E-1,5.240602112E-1,9.802814941E0,9.819565194E0
1.082615325E1,2.058219910E-1,5.288502502E-1,9.787247314E0,9.803685800E0
1.083618525E1,2.038760376E-1,5.516029358E-1,9.792037354E0,9.809680258E0
1.084621625E1,2.276765442E-1,5.542973328E-1,9.811047821E0,9.829330673E0
1.085624825E1,2.454895020E-1,5.731581116E-1,9.833650818E0,9.853398588E0
1.086627925E1,2.817141724E-1,5.662724304E-1,9.847122803E0,9.867413786E0
1.087631125E1,2.992277527E-1,5.689668274E-1,9.864935760E0,9.885859500E0
1.088634225E1,3.031196594E-1,5.728587341E-1,9.856553192E0,9.877838300E0
1.089637425E1,2.844085693E-1,5.665718079E-1,9.831405487E0,9.851823471E0
1.090640525E1,2.516267395E-1,6.023474121E-1,9.782906342E0,9.804661897E0
1.091643725E1,2.139051819E-1,6.206094360E-1,9.804311829E0,9.826262867E0
1.092646925E1,1.960922241E-1,6.468049622E-1,9.812993774E0,9.836241947E0
1.093650025E1,2.275268555E-1,6.518943787E-1,9.822573853E0,9.846811252E0
1.094653225E1,2.573149109E-1,6.213578796E-1,9.854008484E0,9.876931699E0
1.095656325E1,2.772235107E-1,6.092330933E-1,9.861043854E0,9.883734300E0
1.096659525E1,2.921923828E-1,5.843847656E-1,9.883497162E0,9.905069313E0
1.097662625E1,2.935395813E-1,5.721102905E-1,9.891430664E0,9.912309330E0
1.098665825E1,2.695893860E-1,5.846841431E-1,9.889634399E0,9.910570243E0
1.099668925E1,2.627037048E-1,6.057902527E-1,9.898016968E0,9.920016883E0
1.100672125E1,2.505789185E-1,6.004014587E-1,9.866582336E0,9.888008834E0
1.101675225E1,2.688409424E-1,6.117778015E-1,9.856253815E0,9.878880847E0
1.102678425E1,2.767744446E-1,6.132746887E-1,9.842183075E0,9.865154718E0
1.103681625E1,2.803669739E-1,5.972579956E-1,9.859247589E0,9.881299802E0
1.104684725E1,2.874023438E-1,6.164181519E-1,9.864037628E0,9.887457195E0
1.105687925E1,2.893482971E-1,6.137237549E-1,9.851763153E0,9.875100835E0
1.106691025E1,2.606080627E-1,5.900729370E-1,9.842931519E0,9.864046001E0
1.107694225E1,2.571652222E-1,5.912704468E-1,9.798923035E0,9.820113407E0
1.108697325E1,2.393522644E-1,5.755531311E-1,9.800270233E0,9.820073704E0
1.109700587E1,2.258802795E-1,5.641767883E-1,9.797276459E0,9.816106324E0
1.110703687E1,2.357597351E-1,5.361849976E-1,9.790390778E0,9.807896236E0
1.111706887E1,2.427951050E-1,5.300477600E-1,9.832902374E0,9.850171024E0
1.112709988E1,2.618055725E-1,5.216651917E-1,9.846074982E0,9.863359938E0
1.113713187E1,2.772235107E-1,5.044509888E-1,9.840985565E0,9.857805058E0
1.114716387E1,2.823129272E-1,5.191204834E-1,9.825118561E0,9.842872619E0
1.115719488E1,2.734812927E-1,5.357359314E-1,9.815239105E0,9.833652612E0
1.116722687E1,2.598596191E-1,5.493576050E-1,9.811047821E0,9.829851481E0
1.117725787E1,2.607577515E-1,5.516029358E-1,9.802665253E0,9.821634612E0
1.118728988E1,2.423460388E-1,5.448669434E-1,9.797725525E0,9.815856409E0
1.119732088E1,2.574645996E-1,5.548960876E-1,9.839488678E0,9.858485438E0
1.120735287E1,2.418969727E-1,5.697152710E-1,9.842482452E0,9.861924278E0
1.121738387E1,2.332150269E-1,5.677693176E-1,9.860445099E0,9.879530798E0
1.122741588E1,2.359094238E-1,5.900729370E-1,9.876312103E0,9.896735830E0
1.123744688E1,2.261796570E-1,6.005511475E-1,9.864935760E0,9.885786589E0
1.124747887E1,2.143542480E-1,6.242019653E-1,9.853110352E0,9.875189084E0
1.125751088E1,2.293231201E-1,6.463558960E-1,9.838440857E0,9.862316337E0
1.126754188E1,2.383044434E-1,6.415658569E-1,9.830357666E0,9.854152810E0
1.127757387E1,2.466870117E-1,6.471043396E-1,9.803114319E0,9.827545414E0
1.128760487E1,2.616558838E-1,6.258485413E-1,9.828860779E0,9.852241086E0
1.129763688E1,2.760260010E-1,5.971083069E-1,9.837991791E0,9.859959998E0
1.130766787E1,2.706372070E-1,5.577401733E-1,9.862840118E0,9.882304073E0
1.131769987E1,2.649490356E-1,5.318440247E-1,9.883646851E0,9.901491359E0
1.132773087E1,2.547702026E-1,5.165757751E-1,9.856253815E0,9.873069312E0
1.133776288E1,2.507286072E-1,5.144801331E-1,9.798923035E0,9.815622613E0
1.134779387E1,2.457888794E-1,5.245092773E-1,9.780361633E0,9.797499468E0
1.135782587E1,2.631527710E-1,5.272036743E-1,9.825867004E0,9.843518450E0
1.136785788E1,3.144960022E-1,5.456153870E-1,9.991722107E0,1.001154906E1
1.137788887E1,3.849993896E-1,5.363346863E-1,1.005548950E1,1.007713990E1
1.138792087E1,3.565585327E-1,5.108876038E-1,9.889035645E0,9.908640982E0
1.139795187E1,2.371069336E-1,4.917274475E-1,9.761500854E0,9.776753782E0
1.140798388E1,1.899549866E-1,5.020559692E-1,9.720486145E0,9.735296297E0
1.141801487E1,1.951940918E-1,5.081932068E-1,9.756860504E0,9.772036019E0
1.142804687E1,2.423460388E-1,5.315446472E-1,9.791887665E0,9.809298413E0
1.143807788E1,2.821632385E-1,5.453160095E-1,9.773026886E0,9.792294938E0
1.144810987E1,2.838098145E-1,5.569917297E-1,9.749076691E0,9.769098429E0
1.145814187E1,2.609074402E-1,5.851332092E-1,9.760752411E0,9.781755527E0
1.146817288E1,2.421963501E-1,6.174659729E-1,9.829609222E0,9.851961265E0
1.147820488E1,2.441423035E-1,6.514453125E-1,9.903555450E0,9.927960366E0
1.148823587E1,2.457888794E-1,6.590794373E-1,9.954748993E0,9.979570401E0
1.149826787E1,2.477348328E-1,6.418652344E-1,9.955647125E0,9.979392427E0
1.150829888E1,2.790197754E-1,6.267466736E-1,9.952653351E0,9.976270453E0
1.151833087E1,2.760260010E-1,6.147715759E-1,9.913135529E0,9.936014817E0
1.152836187E1,3.016227722E-1,5.721102905E-1,9.890233154E0,9.911357038E0
1.153839388E1,2.947370911E-1,5.312452698E-1,9.877958679E0,9.896623624E0
1.154842488E1,2.820135498E-1,5.056484985E-1,9.860744476E0,9.877727151E0
1.155845687E1,2.541714478E-1,5.069956970E-1,9.844278717E0,9.860601970E0
1.156848787E1,2.363584900E-1,5.008584595E-1,9.809850311E0,9.825471371E0
1.157851988E1,2.246827698E-1,5.051994324E-1,9.810299377E0,9.825868037E0
1.158855187E1,2.429447937E-1,5.158273315E-1,9.805659027E0,9.822222201E0
1.159858287E1,2.595602417E-1,5.360353088E-1,9.823022919E0,9.841061154E0
1.160861488E1,2.757266235E-1,5.339396667E-1,9.849517822E0,9.867832491E0
1.161864588E1,2.954855347E-1,5.233117676E-1,9.857002258E0,9.875305587E0
1.162867787E1,2.981799316E-1,5.316943359E-1,9.854307861E0,9.873145070E0
1.163870887E1,2.999761963E-1,5.462141418E-1,9.850565643E0,9.870257297E0
1.164874088E1,2.874023438E-1,5.501060486E-1,9.809850311E0,9.829464884E0
1.165877187E1,2.670446777E-1,5.664221191E-1,9.800719299E0,9.820704947E0
1.166880387E1,2.374063110E-1,5.861810303E-1,9.816137238E0,9.836489222E0
1.167883588E1,2.263293457E-1,6.066883850E-1,9.852960663E0,9.874215391E0
1.168886688E1,2.468367004E-1,5.709127808E-1,9.858499146E0,9.878100787E0
1.169889887E1,2.787203979E-1,5.545967102E-1,9.841883698E0,9.861436877E0
1.170892987E1,2.707868958E-1,5.372328186E-1,9.831704865E0,9.850094679E0
1.171896188E1,2.781216431E-1,5.306465149E-1,9.858648834E0,9.876836245E0
1.172899287E1,2.865042114E-1,5.647755432E-1,9.888287201E0,9.908545799E0
1.173902487E1,2.805166626E-1,5.683680725E-1,9.908944244E0,9.929194726E0
1.174905587E1,2.832110596E-1,5.915698242E-1,9.920619965E0,9.942276593E0
1.175908788E1,2.902464294E-1,6.011499023E-1,9.931846619E0,9.954255444E0
1.176911887E1,2.899470520E-1,6.063890076E-1,9.967921600E0,9.990557440E0
1.177915087E1,2.784210205E-1,6.274951172E-1,9.965975647E0,9.989591532E0
1.178918288E1,2.725831604E-1,6.295907593E-1,9.913584595E0,9.937295689E0
1.179921387E1,2.363584900E-1,6.333329773E-1,9.853709106E0,9.876869907E0
1.180924587E1,1.987866211E-1,6.328839111E-1,9.791588287E0,9.814033796E0
1.181927688E1,1.740879822E-1,6.236032104E-1,9.723928986E0,9.745459584E0
1.182930888E1,1.651066589E-1,6.122268677E-1,9.700427856E0,9.721130724E0
1.183933987E1,2.076182556E-1,5.740562439E-1,9.714947662E0,9.734107766E0
1.184937187E1,2.399510193E-1,5.307962036E-1,9.733958130E0,9.751372312E0
1.185940288E1,3.061134338E-1,4.912783813E-1,9.827663269E0,9.844695283E0
1.186943487E1,3.600013733E-1,4.683760071E-1,9.869725800E0,9.887389162E0
1.187946587E1,4.062551880E-1,4.408332825E-1,9.903256073E0,9.921383881E0
1.188949788E1,4.108955383E-1,4.234693909E-1,9.903555450E0,9.921117479E0
1.189952987E1,4.038601685E-1,4.302053833E-1,9.882898407E0,9.900497999E0
1.190956087E1,3.827540588E-1,4.436773682E-1,9.844278717E0,9.861702375E0
1.191959287E1,3.716770935E-1,4.809498596E-1,9.822873230E0,9.841661197E0
1.192962388E1,3.365002441E-1,4.948709106E-1,9.814340973E0,9.832569266E0
1.193965587E1,3.237767029E-1,5.213658142E-1,9.823322296E0,9.842475024E0
1.194968687E1,3.004252625E-1,5.490582275E-1,9.846224670E0,9.866096520E0
1.195971888E1,2.607577515E-1,5.733078003E-1,9.854307861E0,9.874414406E0
1.196974988E1,2.427951050E-1,6.005511475E-1,9.866133270E0,9.887375630E0
1.197978187E1,2.296224976E-1,6.150709534E-1,9.833650818E0,9.855542967E0
1.198981387E1,2.363584900E-1,6.351292419E-1,9.833650818E0,9.856974328E0
1.199984488E1,2.502795410E-1,6.420149231E-1,9.829758911E0,9.853881634E0
1.200987687E1,2.658471680E-1,6.412664795E-1,9.808652802E0,9.833187031E0
1.201990787E1,2.885998535E-1,6.337820435E-1,9.808054047E0,9.832745992E0
1.202993988E1,2.929408264E-1,5.984555054E-1,9.824669495E0,9.847237887E0
1.203997088E1,2.984793091E-1,5.599855042E-1,9.845775604E0,9.866203470E0
1.205000287E1,3.040177917E-1,5.143304443E-1,9.862391052E0,9.880471643E0
1.206003387E1,2.989283752E-1,5.005590820E-1,9.870773621E0,9.887977014E0
1.207006588E1,2.920426941E-1,4.915777588E-1,9.838590546E0,9.855191604E0
1.208009687E1,3.010240173E-1,5.156776428E-1,9.823022919E0,9.841154310E0
1.209012887E1,3.041674805E-1,5.396278381E-1,9.815837860E0,9.835364200E0
1.210016038E1,3.131488037E-1,5.399272156E-1,9.886490936E0,9.906174166E0
1.211019138E1,3.540138245E-1,5.294490051E-1,1.002046234E1,1.004068262E1
1.212022337E1,3.897894287E-1,5.433700562E-1,9.953252106E0,9.975691169E0
1.213025437E1,3.246748352E-1,5.284011841E-1,9.776320038E0,9.795971368E0
1.214028638E1,2.463876343E-1,5.108876038E-1,9.757908325E0,9.774379156E0
1.215031737E1,2.432441711E-1,5.026547241E-1,9.784403229E0,9.800325303E0
1.216034937E1,2.778222656E-1,5.119354248E-1,9.821675720E0,9.838931702E0
1.217038037E1,3.222798157E-1,5.090913391E-1,9.793085175E0,9.811603106E0
1.218041238E1,3.287164307E-1,5.342390442E-1,9.748328247E0,9.768488597E0
1.219044337E1,2.972817993E-1,5.620811462E-1,9.723330231E0,9.744098853E0
1.220047537E1,2.956352234E-1,5.935157776E-1,9.763147430E0,9.785637890E0
1.221050738E1,3.085084534E-1,6.357279968E-1,9.840985565E0,9.866322742E0
1.222053837E1,3.058140564E-1,6.535409546E-1,9.906399536E0,9.932642639E0
1.223057037E1,3.474275208E-1,6.712042236E-1,9.967622223E0,9.996234980E0
1.224060138E1,3.842509460E-1,6.737489319E-1,9.996063080E0,1.002610909E1
1.225063338E1,3.980223083E-1,6.532415771E-1,9.983938293E0,1.001319980E1
1.226066437E1,3.841012573E-1,6.170169067E-1,9.954449615E0,9.980947389E0
1.227069637E1,3.614982605E-1,5.584886169E-1,9.901010742E0,9.923336346E0
1.228072738E1,3.360511780E-1,5.376818848E-1,9.860894165E0,9.881258318E0
1.229075937E1,3.128494263E-1,5.300477600E-1,9.826316071E0,9.845573265E0
1.230079037E1,2.716850281E-1,5.197192383E-1,9.796378326E0,9.813916097E0
1.231082238E1,2.490820312E-1,5.312452698E-1,9.782756653E0,9.800336276E0
1.232085437E1,2.674937439E-1,5.346881104E-1,9.780361633E0,9.798618166E0
1.233088537E1,2.791694641E-1,5.559439087E-1,9.811796265E0,9.831498114E0
1.234091737E1,3.125500488E-1,5.716612244E-1,9.823471985E0,9.845053881E0
1.235094838E1,3.580554199E-1,5.774990845E-1,9.856852570E0,9.880245516E0
1.236098037E1,3.781137085E-1,5.780978394E-1,9.858050079E0,9.882222344E0
1.237101137E1,3.782633972E-1,5.638774109E-1,9.873318329E0,9.896638609E0
1.238104338E1,3.830534363E-1,5.677693176E-1,9.855655060E0,9.879424507E0
1.239107438E1,3.577560425E-1,5.710624695E-1,9.838291168E0,9.861342446E0
1.240110637E1,3.433859253E-1,6.004014587E-1,9.841284943E0,9.865560558E0
1.241113837E1,3.097059631E-1,6.078858948E-1,9.819280701E0,9.842952632E0
1.242116938E1,3.150947571E-1,6.008505249E-1,9.822424164E0,9.845827670E0
1.243120137E1,3.537144470E-1,5.851332092E-1,9.812095642E0,9.835889165E0
1.244123237E1,3.662882996E-1,5.724096680E-1,9.829010468E0,9.852475157E0
1.245126438E1,3.701802063E-1,5.209167480E-1,9.892777863E0,9.913397071E0
1.246129538E1,3.760180664E-1,5.346881104E-1,9.922416229E0,9.943924014E0
1.247132737E1,3.734733582E-1,5.608836365E-1,9.928703156E0,9.951543556E0
1.248135837E1,3.435356140E-1,5.872288513E-1,9.902208252E0,9.925552010E0
1.249139038E1,3.501219177E-1,6.158193970E-1,9.881102142E0,9.906462458E0
1.250142137E1,3.559597778E-1,6.292913818E-1,9.859546967E0,9.886019492E0
1.251145337E1,3.656895447E-1,6.520440674E-1,9.823771362E0,9.852176109E0
1.252148538E1,3.844006348E-1,6.378236389E-1,9.829160156E0,9.857330887E0
1.253151638E1,3.884422302E-1,6.484515381E-1,9.828561401E0,9.857585708E0
1.254154837E1,3.805087280E-1,6.408174133E-1,9.829758911E0,9.857971095E0
1.255157937E1,3.601510620E-1,6.225553894E-1,9.807754669E0,9.834090484E0
1.256161138E1,3.388952637E-1,6.262976074E-1,9.793534241E0,9.819389575E0
1.257164237E1,3.324586487E-1,5.944139099E-1,9.783954163E0,9.807630484E0
1.258167437E1,3.302133179E-1,5.809419250E-1,9.786947937E0,9.809734159E0
1.259170538E1,3.341052246E-1,5.590873718E-1,9.826765137E0,9.848325647E0
1.260173738E1,3.381468201E-1,5.474116516E-1,9.849667511E0,9.870661217E0
1.261176937E1,3.430865479E-1,5.475613403E-1,9.826914825E0,9.848136209E0
1.262180037E1,3.694317627E-1,5.656736755E-1,9.832453308E0,9.855638213E0
1.263183238E1,3.835025024E-1,5.719606018E-1,9.802216187E0,9.826375490E0
1.264186337E1,4.031117249E-1,5.680686951E-1,9.811945953E0,9.836639899E0
1.265189537E1,3.944297791E-1,5.891748047E-1,9.819580078E0,9.845143712E0
1.266192638E1,3.805087280E-1,5.873785400E-1,9.832153931E0,9.857030555E0
1.267195837E1,3.550616455E-1,5.894741821E-1,9.837542725E0,9.861581792E0
1.268198937E1,3.550616455E-1,5.824388123E-1,9.846973114E0,9.870571577E0
1.269202137E1,3.463796997E-1,6.107299805E-1,9.855804749E0,9.880782218E0
1.270205238E1,3.532653809E-1,6.310876465E-1,9.856553192E0,9.883051597E0
1.271208437E1,3.879931641E-1,6.533912659E-1,9.816885681E0,9.846253263E0
1.272211637E1,3.638932800E-1,6.731501770E-1,9.819580078E0,9.849350354E0
1.273214738E1,3.525169373E-1,6.909631348E-1,9.820328522E0,9.850916227E0
1.274217937E1,3.529660034E-1,6.752458191E-1,9.826465759E0,9.855961203E0
1.275221037E1,3.552113342E-1,6.532415771E-1,9.828711090E0,9.856797723E0
1.276224237E1,3.580554199E-1,6.484515381E-1,9.850565643E0,9.878377224E0
1.277227338E1,3.525169373E-1,6.280938721E-1,9.862540741E0,9.888805791E0
1.278230537E1,3.617976379E-1,6.267466736E-1,9.828262024E0,9.854869017E0
1.279233637E1,3.667373657E-1,6.227050781E-1,9.835147705E0,9.861662552E0
1.280236838E1,3.719764709E-1,6.445596313E-1,9.831704865E0,9.859829824E0
1.281239938E1,3.903881836E-1,6.239025879E-1,9.820178833E0,9.847719009E0
1.282243137E1,4.168830872E-1,6.156697083E-1,9.938283234E0,9.966058114E0
1.283246338E1,4.665797424E-1,5.974076843E-1,9.983788605E0,1.001252353E1
1.284249438E1,4.511618042E-1,5.938151550E-1,9.840386810E0,9.868605575E0
1.285252637E1,3.643423462E-1,5.704637146E-1,9.731114044E0,9.754627350E0
1.286255737E1,3.065625000E-1,5.566923523E-1,9.713899841E0,9.734666767E0
1.287258938E1,3.365002441E-1,5.692662048E-1,9.760902100E0,9.783276865E0
1.288262038E1,3.561094666E-1,5.682183838E-1,9.804012451E0,9.826919468E0
1.289265237E1,3.683839417E-1,5.990542603E-1,9.795180817E0,9.820394084E0
1.290268337E1,3.743714905E-1,6.415658569E-1,9.752818909E0,9.781065250E0
1.291271538E1,3.685336304E-1,6.994953918E-1,9.754615173E0,9.786604519E0
1.292274737E1,3.906875610E-1,7.439529419E-1,9.794282684E0,9.830263275E0
1.293277837E1,4.104464722E-1,7.806266785E-1,9.868528290E0,9.907860260E0
1.294281038E1,4.114942932E-1,7.902067566E-1,9.910590820E0,9.950555998E0
1.295284137E1,4.107458496E-1,7.457492065E-1,9.947114868E0,9.983483772E0
1.296287337E1,3.998185730E-1,7.024891663E-1,9.950408020E0,9.983184146E0
1.297290437E1,3.863465881E-1,6.412664795E-1,9.939331055E0,9.967486554E0
1.298293638E1,3.779640198E-1,5.867797852E-1,9.903106384E0,9.927672606E0
1.299296737E1,3.601510620E-1,5.595364380E-1,9.855804749E0,9.878242610E0
1.300299937E1,3.402424622E-1,5.824388123E-1,9.799970856E0,9.823157775E0
1.301303038E1,3.487747192E-1,6.092330933E-1,9.758806458E0,9.784023316E0
1.302306237E1,3.586541748E-1,6.474037170E-1,9.768236847E0,9.796234761E0
1.303309437E1,3.728746033E-1,6.589297485E-1,9.796977081E0,9.826188672E0
1.304312537E1,4.183799744E-1,6.809339905E-1,9.859097900E0,9.891436918E0
1.305315738E1,4.387376404E-1,6.740483093E-1,9.885293427E0,9.917956340E0
1.306318837E1,4.361929321E-1,6.536906433E-1,9.873917084E0,9.905140802E0
1.307322037E1,4.194277954E-1,6.346801758E-1,9.858948212E0,9.888255581E0
1.308325138E1,3.933819580E-1,6.312373352E-1,9.840237122E0,9.868306671E0
1.309328337E1,3.775149536E-1,6.297404480E-1,9.835297394E0,9.862665228E0
1.310331412E1,3.588038635E-1,6.406677246E-1,9.806856537E0,9.834308846E0
1.311334612E1,3.490740967E-1,6.725514221E-1,9.788893890E0,9.818178127E0
1.312337713E1,3.399430847E-1,6.993457031E-1,9.819580078E0,9.850319722E0
1.313340912E1,3.507206726E-1,7.197033691E-1,9.833201752E0,9.865740450E0
1.314344112E1,4.152365112E-1,7.057823181E-1,9.819131012E0,9.853216930E0
1.315347213E1,4.375401306E-1,6.759942627E-1,9.848020935E0,9.880886901E0
1.316350412E1,4.444258118E-1,6.605763245E-1,9.858050079E0,9.890147964E0
1.317353512E1,4.317022705E-1,6.548881531E-1,9.853858795E0,9.885027997E0
1.318356713E1,3.966751099E-1,6.563850403E-1,9.831555176E0,9.861423307E0
1.319359813E1,3.570075989E-1,6.551875305E-1,9.857301636E0,9.885500527E0
1.320363012E1,3.671864319E-1,6.650669861E-1,9.858349457E0,9.887577761E0
1.321366112E1,3.888912964E-1,6.737489319E-1,9.850715332E0,9.881384853E0
1.322369313E1,4.014651489E-1,6.923103333E-1,9.860744476E0,9.893166808E0
1.323372413E1,4.093986511E-1,6.947053528E-1,9.875264282E0,9.908131379E0
1.324375612E1,4.254153442E-1,6.873706055E-1,9.884544983E0,9.917544358E0
1.325378813E1,4.111949158E-1,6.938072205E-1,9.862840118E0,9.895759947E0
1.326381913E1,4.070036316E-1,6.833290100E-1,9.834698639E0,9.866807377E0
1.327385112E1,3.667373657E-1,6.771917725E-1,9.822124786E0,9.852269805E0
1.328388212E1,3.579057312E-1,6.520440674E-1,9.798324280E0,9.826515999E0
1.329391413E1,3.634442139E-1,6.268963623E-1,9.782606964E0,9.809408227E0
1.330394512E1,3.574566650E-1,6.021977234E-1,9.809550934E0,9.834516098E0
1.331397712E1,3.619473267E-1,5.918692017E-1,9.833650818E0,9.858093296E0
1.332400812E1,3.839515686E-1,6.057902527E-1,9.829758911E0,9.855889655E0
1.333404013E1,3.956272888E-1,6.119274902E-1,9.818083191E0,9.845086782E0
1.334407212E1,4.074526978E-1,6.200106812E-1,9.816735992E0,9.844731408E0
1.335410312E1,4.159849548E-1,6.387217712E-1,9.818382568E0,9.847925936E0
1.336413513E1,4.170327759E-1,6.414161682E-1,9.819430389E0,9.849190028E0
1.337416612E1,3.984713745E-1,6.527925110E-1,9.813293152E0,9.843050339E0
1.338419812E1,3.755690002E-1,6.448590088E-1,9.814191284E0,9.842522328E0
1.339422912E1,3.623963928E-1,6.439608765E-1,9.850116577E0,9.877793951E0
1.340426113E1,3.915856934E-1,6.635700989E-1,9.878557434E0,9.908560017E0
1.341429212E1,4.068539429E-1,6.863227844E-1,9.872270508E0,9.904458293E0
1.342432412E1,4.089495850E-1,7.137158203E-1,9.826914825E0,9.861282119E0
1.343435613E1,4.022135925E-1,7.405101013E-1,9.788744202E0,9.824950078E0
1.344438712E1,3.842509460E-1,7.249424744E-1,9.783804474E0,9.818147502E0
1.345441912E1,3.718267822E-1,6.975494385E-1,9.792336731E0,9.824188976E0
1.346445013E1,3.635939026E-1,6.896159363E-1,9.825268250E0,9.856148682E0
1.347448213E1,3.519181824E-1,6.641688538E-1,9.890233154E0,9.918753879E0
1.348451312E1,3.748205566E-1,6.438111877E-1,9.865085449E0,9.893174122E0
1.349454512E1,3.751199341E-1,6.448590088E-1,9.830507355E0,9.858774415E0
1.350457613E1,3.959266663E-1,6.433621216E-1,9.837093658E0,9.866057186E0
1.351460812E1,4.221221924E-1,6.595285034E-1,9.824968872E0,9.856123900E0
1.352463912E1,4.242178345E-1,6.535409546E-1,9.804760895E0,9.835670427E0
1.353467113E1,4.460723877E-1,6.354286194E-1,9.907147980E0,9.937521381E0
1.354470312E1,4.857398987E-1,6.113287354E-1,9.952503662E0,9.983085456E0
1.355473412E1,4.538562012E-1,6.153703308E-1,9.811347198E0,9.841097497E0
1.356476612E1,3.493734741E-1,6.282435608E-1,9.725575562E0,9.752106019E0
1.357479713E1,3.228785706E-1,6.101312256E-1,9.724228363E0,9.748698782E0
1.358482912E1,3.305126953E-1,5.993536377E-1,9.773176575E0,9.797114054E0
1.359486012E1,3.661386108E-1,5.927673340E-1,9.805060272E0,9.829783189E0
1.360489213E1,3.888912964E-1,6.221063232E-1,9.787546692E0,9.815004991E0
1.361492313E1,3.725752258E-1,6.689588928E-1,9.766739960E0,9.796710047E0
1.362495512E1,3.858975220E-1,7.294331360E-1,9.755513306E0,9.790353898E0
1.363498712E1,4.260140991E-1,7.572752380E-1,9.816436615E0,9.854815149E0
1.364501813E1,4.522096252E-1,7.833210754E-1,9.911339264E0,9.952523874E0
1.365505012E1,4.523593140E-1,7.749385071E-1,9.955497437E0,9.995853533E0
1.366508112E1,4.474195862E-1,7.502398682E-1,9.963281250E0,1.000150076E1
1.367511313E1,4.263134766E-1,7.092251587E-1,9.946965179E0,9.981325553E0
1.368514413E1,3.978726196E-1,6.357279968E-1,9.906249847E0,9.934598067E0
1.369517612E1,3.864962769E-1,6.071374512E-1,9.845476227E0,9.871747433E0
1.370520712E1,3.745211792E-1,6.186634827E-1,9.822424164E0,9.849011477E0
1.371523913E1,3.772155762E-1,6.240522766E-1,9.793384552E0,9.820494581E0
1.372527012E1,3.806584167E-1,6.515950012E-1,9.775421906E0,9.804506632E0
1.373530212E1,4.025129700E-1,6.424639893E-1,9.801018677E0,9.830297237E0
1.374533413E1,4.345463562E-1,6.415658569E-1,9.850865021E0,9.881294396E0
1.375536513E1,4.444258118E-1,6.391708374E-1,9.871222687E0,9.901873105E0
1.376539712E1,4.487667847E-1,6.303392029E-1,9.844877472E0,9.875238305E0
1.377542812E1,4.387376404E-1,6.331832886E-1,9.802515564E0,9.832737319E0
1.378546013E1,4.122427368E-1,6.195616150E-1,9.787247314E0,9.815498493E0
1.379549112E1,3.921844482E-1,6.179150391E-1,9.807155914E0,9.834426001E0
1.380552312E1,3.785627747E-1,6.294410706E-1,9.825567627E0,9.852983560E0
1.381555413E1,3.870950317E-1,6.622229004E-1,9.853409729E0,9.883221389E0
1.382558613E1,3.694317627E-1,6.845265198E-1,9.834698639E0,9.865411988E0
1.383561812E1,3.712280273E-1,7.089257812E-1,9.841584320E0,9.874065421E0
1.384564912E1,3.917353821E-1,7.098239136E-1,9.829010468E0,9.862390855E0
1.385568113E1,4.079017639E-1,7.206015015E-1,9.812694397E0,9.847569330E0
1.386571212E1,4.402345276E-1,6.698570251E-1,9.856104126E0,9.888645176E0
1.387574412E1,4.622387695E-1,6.532415771E-1,9.848020935E0,9.880481040E0
1.388577513E1,4.387376404E-1,6.475534058E-1,9.818831635E0,9.849937604E0
1.389580712E1,3.900888062E-1,6.369255066E-1,9.790690155E0,9.819137288E0
1.390583812E1,3.656895447E-1,6.355783081E-1,9.800419922E0,9.827813555E0
1.391587012E1,3.872447205E-1,6.583309937E-1,9.852212219E0,9.881773312E0
1.392590113E1,4.167333984E-1,6.822811890E-1,9.884395294E0,9.916675082E0
1.393593312E1,4.192781067E-1,7.014413452E-1,9.906998291E0,9.940645313E0
1.394596512E1,4.218228149E-1,7.083270264E-1,9.923763428E0,9.957948696E0
1.395599613E1,4.162843323E-1,7.063810730E-1,9.899513855E0,9.933410363E0
1.396602812E1,4.258644104E-1,7.045848083E-1,9.879754944E0,9.913998083E0
1.397605912E1,4.216731262E-1,6.988966370E-1,9.834998016E0,9.868812022E0
1.398609112E1,4.176315308E-1,6.692582703E-1,9.802964630E0,9.834654964E0
1.399612213E1,4.026626587E-1,6.521937561E-1,9.785600739E0,9.815573123E0
1.400615412E1,3.873944092E-1,6.234535217E-1,9.763147430E0,9.790700510E0
1.401618512E1,3.785627747E-1,6.083349609E-1,9.781559143E0,9.807766334E0
1.402621713E1,3.854484558E-1,5.984555054E-1,9.829010468E0,9.854753486E0
1.403624912E1,4.080514526E-1,6.020480347E-1,9.835596771E0,9.862450592E0
1.404628012E1,4.087998962E-1,6.101312256E-1,9.825268250E0,9.852678501E0
1.405631213E1,4.105961609E-1,6.289920044E-1,9.818232880E0,9.846924242E0
1.406634313E1,3.977229309E-1,6.289920044E-1,9.801467743E0,9.829678753E0
1.407637512E1,4.037104797E-1,6.629713440E-1,9.799521790E0,9.830215687E0
1.408640612E1,4.126918030E-1,6.759942627E-1,9.816286926E0,9.848186218E0
1.409643788E1,4.095483398E-1,6.794371033E-1,9.824370117E0,9.856348858E0
1.410646888E1,3.905378723E-1,6.617738342E-1,9.849966888E0,9.879894339E0
1.411650087E1,4.049079895E-1,6.524931335E-1,9.883946228E0,9.913732436E0
1.412653187E1,3.912863159E-1,6.518943787E-1,9.879605255E0,9.908817854E0
1.413656388E1,3.817062378E-1,6.634204102E-1,9.890532532E0,9.920103833E0
1.414659587E1,3.980223083E-1,6.920109558E-1,9.887389069E0,9.919564684E0
1.415662687E1,4.122427368E-1,7.376660156E-1,9.829908600E0,9.866164316E0
1.416665888E1,4.168830872E-1,7.408094788E-1,9.778864746E0,9.815741740E0
1.417668988E1,4.062551880E-1,7.140151978E-1,9.755064240E0,9.789593418E0
1.418672187E1,3.911366272E-1,6.893165588E-1,9.768985291E0,9.801082531E0
1.419675287E1,3.992198181E-1,6.381230164E-1,9.808353424E0,9.837193418E0
1.420678488E1,3.867956543E-1,6.273454285E-1,9.874216461E0,9.901682882E0
1.421681587E1,3.845503235E-1,6.303392029E-1,9.874665527E0,9.902233371E0
1.422684787E1,3.944297791E-1,6.532415771E-1,9.842332764E0,9.871869815E0
1.423687988E1,4.028123474E-1,6.604266357E-1,9.839039612E0,9.869403306E0
1.424691087E1,4.209246826E-1,6.891668701E-1,9.828561401E0,9.861680779E0
1.425694287E1,4.252656555E-1,6.599775696E-1,9.846973114E0,9.878223564E0
1.426697387E1,4.315525818E-1,6.403683472E-1,9.885143738E0,9.915259753E0
1.427700588E1,4.658312988E-1,6.499484253E-1,9.884245605E0,9.916538859E0
1.428703687E1,4.378395081E-1,6.414161682E-1,9.780211945E0,9.810997086E0
1.429706887E1,3.508703613E-1,6.267466736E-1,9.739795990E0,9.766245304E0
1.430709988E1,3.255729675E-1,5.938151550E-1,9.754764862E0,9.778243795E0
1.431713187E1,3.650907898E-1,5.590873718E-1,9.785151672E0,9.807908198E0
1.432716287E1,3.763174438E-1,5.510041809E-1,9.811945953E0,9.834607456E0
1.433719487E1,3.579057312E-1,5.827381897E-1,9.785900116E0,9.809766633E0
1.434722688E1,3.650907898E-1,6.731501770E-1,9.745484161E0,9.775524742E0
1.435725787E1,3.944297791E-1,7.472460938E-1,9.746831360E0,9.783387610E0
1.436728987E1,4.263134766E-1,7.943980408E-1,9.789792023E0,9.831217589E0
1.437732088E1,4.587959290E-1,8.110134888E-1,9.882000275E0,9.925833265E0
1.438735287E1,4.722679138E-1,8.048762512E-1,9.934840393E0,9.978572864E0
1.439738387E1,4.541555786E-1,7.667056274E-1,9.976453857E0,1.001617324E1
1.440741588E1,4.186793518E-1,6.888674927E-1,9.967023468E0,9.999569372E0
1.441744688E1,3.980223083E-1,6.318360901E-1,9.927655334E0,9.955700831E0
1.442747887E1,3.715274048E-1,6.126759338E-1,9.870623932E0,9.896596446E0
1.443751087E1,3.791615295E-1,6.237528992E-1,9.783505096E0,9.810698401E0
1.444754188E1,3.876937866E-1,6.399192810E-1,9.745035095E0,9.773715372E0
1.445757387E1,4.058061218E-1,6.586303711E-1,9.761949921E0,9.792555276E0
1.446760487E1,4.236190796E-1,6.500981140E-1,9.814191284E0,9.844817482E0
1.447763688E1,4.613406372E-1,6.545887756E-1,9.869875488E0,9.902311033E0
1.448766788E1,4.742138672E-1,6.403683472E-1,9.915680237E0,9.947646203E0
1.449769987E1,4.787045288E-1,6.113287354E-1,9.923164673E0,9.953495766E0
1.450773087E1,4.510121155E-1,6.038442993E-1,9.879006500E0,9.907714635E0
1.451776288E1,4.218228149E-1,6.038442993E-1,9.845326538E0,9.872842401E0
1.452779487E1,3.963757324E-1,6.081852722E-1,9.816885681E0,9.843690747E0
1.453782587E1,3.754193115E-1,6.234535217E-1,9.805359650E0,9.832329928E0
1.454785788E1,3.806584167E-1,6.694079590E-1,9.765243073E0,9.795559204E0
1.455788888E1,3.514691162E-1,6.908134460E-1,9.746681671E0,9.777451475E0
1.456792087E1,3.586541748E-1,7.349716187E-1,9.779463501E0,9.813598854E0
1.457795187E1,3.800596619E-1,7.520361328E-1,9.809550934E0,9.845673832E0
1.458798388E1,4.477189636E-1,7.247927856E-1,9.853409729E0,9.890169874E0
1.459801487E1,4.793032837E-1,6.944059753E-1,9.891879730E0,9.927800154E0
1.460804687E1,4.722679138E-1,6.842271423E-1,9.858199768E0,9.893194956E0
1.461807787E1,4.236190796E-1,6.682104492E-1,9.793833618E0,9.825738408E0
1.462810988E1,3.703298950E-1,6.417155457E-1,9.789342957E0,9.817340709E0
1.463814187E1,3.544628906E-1,6.295907593E-1,9.785900116E0,9.812536346E0
1.464817287E1,3.724255371E-1,6.637197876E-1,9.833650818E0,9.863058002E0
1.465820488E1,3.878434753E-1,6.861730957E-1,9.860594788E0,9.892046585E0
1.466823587E1,4.284091187E-1,7.120692444E-1,9.876312103E0,9.911211719E0
1.467826787E1,4.523593140E-1,7.108717346E-1,9.902956696E0,9.938738294E0
1.468829888E1,4.451742554E-1,7.102729797E-1,9.913734283E0,9.949110275E0
1.469833088E1,4.303550720E-1,6.996450806E-1,9.895023193E0,9.929057998E0
1.470836187E1,4.017645264E-1,6.676116943E-1,9.871522064E0,9.902225405E0
1.471839387E1,3.622467041E-1,6.276448059E-1,9.815388794E0,9.842104341E0
1.472842588E1,3.647914124E-1,6.153703308E-1,9.780361633E0,9.806489030E0
1.473845687E1,3.671864319E-1,5.941145325E-1,9.788594513E0,9.813479530E0
1.474848887E1,3.888912964E-1,5.882766724E-1,9.782756653E0,9.808141190E0
1.475851988E1,4.029620361E-1,5.795947266E-1,9.808802490E0,9.834170770E0
1.476855187E1,4.020639038E-1,5.788462830E-1,9.833052063E0,9.858277298E0
1.477858287E1,4.125421143E-1,6.135740662E-1,9.812095642E0,9.839912856E0
1.478861487E1,4.059558105E-1,6.239025879E-1,9.783654785E0,9.811929245E0
1.479864588E1,4.041595459E-1,6.512956238E-1,9.787995758E0,9.817962716E0
1.480867787E1,4.104464722E-1,6.759942627E-1,9.784103851E0,9.816013586E0
1.481870887E1,3.929328918E-1,6.741979980E-1,9.813143463E0,9.844121283E0
1.482874088E1,3.992198181E-1,6.755451965E-1,9.845775604E0,9.876995243E0
1.483877287E1,4.005670166E-1,6.753955078E-1,9.874066772E0,9.905241423E0
1.484880387E1,4.047583008E-1,6.762936401E-1,9.882599030E0,9.913978311E0
1.485883587E1,3.990701294E-1,6.810836792E-1,9.873917084E0,9.905421269E0
1.486886688E1,3.906875610E-1,6.935078430E-1,9.880204010E0,9.912215755E0
1.487889887E1,3.975732422E-1,6.887178040E-1,9.876461792E0,9.908425416E0
1.488892987E1,3.965254211E-1,6.836283875E-1,9.844578094E0,9.876249189E0
1.489896188E1,3.733236694E-1,6.873706055E-1,9.836345215E0,9.867397635E0
1.490899288E1,3.670367432E-1,6.661148071E-1,9.849068756E0,9.878389559E0
1.491902487E1,3.872447205E-1,6.607260132E-1,9.863289185E0,9.892976846E0
1.492905688E1,3.968247986E-1,6.568341064E-1,9.869725800E0,9.899514550E0
1.493908788E1,4.210743713E-1,6.685098267E-1,9.845925293E0,9.877573279E0
1.494911987E1,4.195774841E-1,6.685098267E-1,9.812544708E0,9.844236096E0
1.495915087E1,3.963757324E-1,6.569837952E-1,9.784103851E0,9.814144364E0
1.496918288E1,3.704795837E-1,6.475534058E-1,9.761949921E0,9.790416068E0
1.497921388E1,3.619473267E-1,6.213578796E-1,9.781559143E0,9.807955483E0
1.498924587E1,3.716770935E-1,6.167175293E-1,9.822723541E0,9.849080269E0
1.499927687E1,3.718267822E-1,6.191125488E-1,9.820927277E0,9.847444749E0
1.500930888E1,3.839515686E-1,6.239025879E-1,9.786947937E0,9.814327443E0
1.501934087E1,3.927832031E-1,6.427633667E-1,9.813143463E0,9.842012397E0
1.502937187E1,3.959266663E-1,6.632707214E-1,9.845326538E0,9.875583052E0
1.503940388E1,4.126918030E-1,6.580316162E-1,9.882149963E0,9.912628714E0
1.504943488E1,4.369413757E-1,6.502478027E-1,9.958640900E0,9.989407817E0
1.505946687E1,4.534071350E-1,6.372248840E-1,9.958491211E0,9.989153156E0
1.506949787E1,4.167333984E-1,6.273454285E-1,9.798773346E0,9.827674603E0
1.507952988E1,3.369493103E-1,6.074368286E-1,9.714199219E0,9.739003070E0
1.508956087E1,3.200344849E-1,6.128256226E-1,9.749226379E0,9.773709240E0
1.509959329E1,3.643423462E-1,5.954617310E-1,9.812544708E0,9.837344849E0
1.510962429E1,3.936813354E-1,5.813909912E-1,9.855355682E0,9.880335830E0
1.511965629E1,3.984713745E-1,6.298901367E-1,9.812544708E0,9.840811688E0
1.512968829E1,3.745211792E-1,6.876699829E-1,9.755962372E0,9.787336610E0
1.513971929E1,3.763174438E-1,7.521858215E-1,9.745633850E0,9.781859612E0
1.514975129E1,4.013154602E-1,7.909552002E-1,9.779014435E0,9.819154115E0
1.515978229E1,4.152365112E-1,8.005352783E-1,9.847721558E0,9.888928050E0
1.516981429E1,4.234693909E-1,8.063731384E-1,9.929002533E0,9.970689809E0
1.517984529E1,4.444258118E-1,7.692503357E-1,9.972112885E0,1.001160805E1
1.518987729E1,4.388873291E-1,7.265890503E-1,9.972861328E0,1.000892186E1
1.519990829E1,4.242178345E-1,6.611750793E-1,9.934241638E0,9.965253142E0
1.520994029E1,3.932322693E-1,6.228547668E-1,9.857002258E0,9.884486491E0
1.521997229E1,3.745211792E-1,6.039939880E-1,9.789043579E0,9.814807642E0
1.523000329E1,3.614982605E-1,5.905220032E-1,9.725126495E0,9.749742693E0
1.524003529E1,3.408412170E-1,6.141728210E-1,9.746981049E0,9.772257700E0
1.525006629E1,3.483256531E-1,6.195616150E-1,9.781259766E0,9.807050013E0
1.526009829E1,3.817062378E-1,6.328839111E-1,9.848020935E0,9.875715571E0
1.527012929E1,4.317022705E-1,6.372248840E-1,9.900561676E0,9.930435232E0
1.528016129E1,4.559518433E-1,6.328839111E-1,9.915680237E0,9.946313321E0
1.529019229E1,4.571493530E-1,6.372248840E-1,9.883796539E0,9.914861326E0
1.530022429E1,4.270619202E-1,6.451583862E-1,9.837243347E0,9.867622201E0
1.531025629E1,3.888912964E-1,6.369255066E-1,9.815239105E0,9.843567912E0
1.532028729E1,3.673361206E-1,6.535409546E-1,9.818981323E0,9.847560400E0
1.533031929E1,3.579057312E-1,6.656657410E-1,9.795180817E0,9.824295121E0
1.534035029E1,3.510200500E-1,6.815327454E-1,9.753567352E0,9.783648504E0
1.535038229E1,3.382965088E-1,7.083270264E-1,9.782307587E0,9.813751241E0
1.536041329E1,3.568579102E-1,7.235952759E-1,9.801467743E0,9.834617817E0
1.537044529E1,4.004173279E-1,7.156617737E-1,9.822424164E0,9.856597905E0
1.538047629E1,4.520599365E-1,7.140151978E-1,9.893077240E0,9.929106363E0
1.539050829E1,4.538562012E-1,6.801855469E-1,9.888436890E0,9.922188365E0
1.540054029E1,4.102967834E-1,6.755451965E-1,9.832153931E0,9.863871232E0
1.541057129E1,3.661386108E-1,6.424639893E-1,9.816436615E0,9.844249351E0
1.542060329E1,3.483256531E-1,6.276448059E-1,9.826465759E0,9.852649293E0
1.543063429E1,3.451821899E-1,6.330335999E-1,9.829459534E0,9.855869165E0
1.544066629E1,3.695814514E-1,6.541397095E-1,9.849667511E0,9.878281191E0
1.545069729E1,3.969744873E-1,6.809339905E-1,9.866133270E0,9.897567658E0
1.546072929E1,4.082011414E-1,6.999444580E-1,9.867929535E0,9.901140526E0
1.547076029E1,4.047583008E-1,7.012916565E-1,9.887538757E0,9.920638182E0
1.548079229E1,3.980223083E-1,7.029382324E-1,9.898166656E0,9.931074820E0
1.549082329E1,3.930825806E-1,6.782395935E-1,9.874366150E0,9.905434353E0
1.550085529E1,3.800596619E-1,6.791377258E-1,9.829908600E0,9.860668156E0
1.551088729E1,3.427871704E-1,6.557862854E-1,9.805060272E0,9.832942878E0
1.552091829E1,3.547622681E-1,6.331832886E-1,9.777966614E0,9.804866569E0
1.553095029E1,3.480262756E-1,5.936654663E-1,9.798473969E0,9.822609281E0
1.554098129E1,3.686833191E-1,5.834866333E-1,9.802365875E0,9.826635273E0
1.555101329E1,3.849993896E-1,5.786965942E-1,9.839189301E0,9.863709260E0
1.556104429E1,3.987707520E-1,5.872288513E-1,9.839039612E0,9.864611311E0
1.557107629E1,3.951782227E-1,6.038442993E-1,9.821825409E0,9.848301789E0
1.558110729E1,3.906875610E-1,6.268963623E-1,9.801916809E0,9.829710522E0
1.559113929E1,3.769161987E-1,6.577322388E-1,9.787097626E0,9.816412657E0
1.560117129E1,3.689826965E-1,6.508465576E-1,9.811197510E0,9.839682213E0
1.561120229E1,3.754193115E-1,6.592291260E-1,9.809700623E0,9.838991259E0
1.562123429E1,3.736230469E-1,6.580316162E-1,9.837692413E0,9.866751837E0
1.563126529E1,3.570075989E-1,6.670129395E-1,9.858499146E0,9.887485327E0
1.564129729E1,3.740721130E-1,6.721023560E-1,9.877359924E0,9.907264537E0
1.565132829E1,3.694317627E-1,6.794371033E-1,9.871222687E0,9.901472211E0
1.566136029E1,3.562591553E-1,6.797364807E-1,9.855954437E0,9.885787785E0
1.567139129E1,3.586541748E-1,6.842271423E-1,9.824968872E0,9.855293650E0
1.568142329E1,3.680845642E-1,6.990463257E-1,9.810000000E0,9.841760615E0
1.569145529E1,3.722758484E-1,6.818321228E-1,9.803862762E0,9.834592489E0
1.570148629E1,3.854484558E-1,6.821315002E-1,9.813742218E0,9.844968777E0
1.571151829E1,4.082011414E-1,6.670129395E-1,9.832602997E0,9.863651257E0
1.572154929E1,3.887416077E-1,6.673123169E-1,9.868079224E0,9.898253044E0
1.573158129E1,3.716770935E-1,6.402186584E-1,9.874665527E0,9.902375628E0
1.574161229E1,3.646417236E-1,6.322851562E-1,9.859696655E0,9.886676198E0
1.575164429E1,3.399430847E-1,6.171665955E-1,9.864037628E0,9.889170554E0
1.576167529E1,3.571572876E-1,6.378236389E-1,9.868977356E0,9.896014065E0
1.577170729E1,3.716770935E-1,6.514453125E-1,9.842033386E0,9.870569691E0
1.578173929E1,3.921844482E-1,6.833290100E-1,9.787846069E0,9.819504970E0
1.579177029E1,3.814068604E-1,6.810836792E-1,9.760153656E0,9.791319909E0
1.580180229E1,3.555107117E-1,6.875202942E-1,9.766889648E0,9.797510165E0
1.581183329E1,3.393443298E-1,6.631210327E-1,9.799821167E0,9.828091319E0
1.582186529E1,3.321592712E-1,6.412664795E-1,9.836794281E0,9.863268941E0
1.583189629E1,3.481759644E-1,6.390211487E-1,9.865085449E0,9.891889883E0
1.584192829E1,3.616479492E-1,6.322851562E-1,9.842183075E0,9.869100336E0
1.585195929E1,3.513194275E-1,6.354286194E-1,9.821675720E0,9.848477488E0
1.586199129E1,3.510200500E-1,6.515950012E-1,9.815688171E0,9.843552479E0
1.587202229E1,3.597019958E-1,6.559359741E-1,9.835596771E0,9.864005341E0
1.588205429E1,4.116439819E-1,6.530918884E-1,9.941726074E0,9.971654683E0
1.589208629E1,4.507127380E-1,6.345304871E-1,9.981992340E0,1.001228955E1
1.590211729E1,4.185296631E-1,6.334826660E-1,9.833501129E0,9.862768973E0
1.591214929E1,3.243754578E-1,6.164181519E-1,9.738149414E0,9.763029488E0
1.592218029E1,2.927911377E-1,5.971083069E-1,9.753417664E0,9.776063681E0
1.593221229E1,3.264710999E-1,6.120771790E-1,9.818681946E0,9.843156862E0
1.594224329E1,3.820056152E-1,6.393205261E-1,9.848020935E0,9.876141725E0
1.595227529E1,3.920347595E-1,6.608757019E-1,9.817035370E0,9.847062069E0
1.596230629E1,3.767665100E-1,6.737489319E-1,9.763297119E0,9.793766449E0
1.597233829E1,3.487747192E-1,7.075785828E-1,9.738598480E0,9.770496999E0
1.598237029E1,3.450325012E-1,7.524851990E-1,9.788744202E0,9.823685380E0
1.599240129E1,3.546125793E-1,7.849676514E-1,9.840985565E0,9.878609274E0
1.600243329E1,3.614982605E-1,7.834707642E-1,9.898915100E0,9.936449446E0
1.601246429E1,3.902384949E-1,7.761360168E-1,9.924811249E0,9.962758229E0
1.602249629E1,4.147874451E-1,7.515870667E-1,9.930499420E0,9.967534824E0
1.603252729E1,4.067042542E-1,7.075785828E-1,9.925859070E0,9.959355103E0
1.604255929E1,3.788621521E-1,6.478527832E-1,9.901160431E0,9.929563316E0
1.605259029E1,3.673361206E-1,6.066883850E-1,9.862091675E0,9.887560813E0
1.606262229E1,3.441343689E-1,5.980064392E-1,9.807006226E0,9.831246680E0
1.607265429E1,3.393443298E-1,5.891748047E-1,9.787546692E0,9.811134072E0
1.608268529E1,3.432362366E-1,5.966592407E-1,9.785451050E0,9.809631268E0
1.609271729E1,3.531156921E-1,6.051914978E-1,9.826166382E0,9.851116343E0
1.610274862E1,3.833528137E-1,6.204597473E-1,9.846524048E0,9.873498139E0
1.611278063E1,4.162843323E-1,6.378236389E-1,9.871522064E0,9.900861554E0
1.612281163E1,4.197271729E-1,6.515950012E-1,9.860594788E0,9.891009883E0
1.613284362E1,4.123924255E-1,6.469546509E-1,9.841734009E0,9.871592887E0
1.614287462E1,3.890409851E-1,6.559359741E-1,9.828711090E0,9.858253729E0
1.615290663E1,3.462300110E-1,6.604266357E-1,9.812694397E0,9.840986225E0
1.616293862E1,3.370989990E-1,6.491999817E-1,9.819430389E0,9.846639504E0
1.617296962E1,3.287164307E-1,6.664141846E-1,9.776918793E0,9.805116187E0
1.618300163E1,3.215313721E-1,7.008425903E-1,9.789492645E0,9.819813084E0
1.619303263E1,3.378474426E-1,7.197033691E-1,9.814490662E0,9.846641091E0
1.620306462E1,3.573069763E-1,7.306306458E-1,9.815837860E0,9.849475230E0
1.621309562E1,3.882925415E-1,7.146139526E-1,9.823022919E0,9.856633475E0
1.622312763E1,4.096980286E-1,6.972500610E-1,9.883347473E0,9.916378744E0
1.623315863E1,4.041595459E-1,6.650669861E-1,9.874216461E0,9.904837695E0
1.624319062E1,3.784130859E-1,6.506968689E-1,9.836045837E0,9.864806161E0
1.625322162E1,3.691323853E-1,6.408174133E-1,9.836345215E0,9.864106288E0
1.626325363E1,3.353027344E-1,6.512956238E-1,9.851314087E0,9.878512193E0
1.627328562E1,3.345542908E-1,6.788383484E-1,9.861941986E0,9.890937661E0
1.628331662E1,3.579057312E-1,6.932084656E-1,9.878557434E0,9.909315388E0
1.629334863E1,3.734733582E-1,6.932084656E-1,9.872270508E0,9.903622837E0
1.630337962E1,3.885919189E-1,7.119195557E-1,9.877210236E0,9.910454842E0
1.631341162E1,3.784130859E-1,6.945556641E-1,9.856253815E0,9.887939284E0
1.632344262E1,3.766168213E-1,6.842271423E-1,9.859846344E0,9.890731871E0
1.633347463E1,3.701802063E-1,6.753955078E-1,9.829309845E0,9.859438346E0
1.634350562E1,3.460803223E-1,6.653663635E-1,9.804461517E0,9.833104781E0
1.635353762E1,3.418890381E-1,6.435118103E-1,9.790839844E0,9.817919352E0
1.636356963E1,3.278182983E-1,6.292913818E-1,9.779463501E0,9.805171026E0
1.637360062E1,3.344046021E-1,5.956114197E-1,9.796228638E0,9.820013998E0
1.638363262E1,3.561094666E-1,5.819897461E-1,9.833501129E0,9.857143119E0
1.639366363E1,3.815565491E-1,6.042933655E-1,9.846823425E0,9.872724418E0
1.640369563E1,3.805087280E-1,6.039939880E-1,9.855655060E0,9.881474196E0
1.641372662E1,3.770658875E-1,6.291416931E-1,9.843530273E0,9.870819935E0
1.642375862E1,3.707789612E-1,6.391708374E-1,9.813143463E0,9.840924805E0
1.643378963E1,3.525169373E-1,6.629713440E-1,9.795929260E0,9.824664333E0
1.644382162E1,3.406915283E-1,6.724017334E-1,9.814640350E0,9.843544078E0
1.645385362E1,3.453318787E-1,6.691085815E-1,9.850266266E0,9.879003285E0
1.646388463E1,3.484753418E-1,6.797364807E-1,9.860445099E0,9.889987578E0
1.647391663E1,3.546125793E-1,6.783892822E-1,9.885742493E0,9.915334928E0
1.648394762E1,3.568579102E-1,6.926097107E-1,9.880653076E0,9.911324886E0
1.649397962E1,3.504212952E-1,6.888674927E-1,9.845625916E0,9.875914296E0
1.650401063E1,3.396437073E-1,6.939569092E-1,9.817334747E0,9.847689860E0
1.651404262E1,3.436853027E-1,7.014413452E-1,9.822573853E0,9.853582934E0
1.652407362E1,3.555107117E-1,6.900650024E-1,9.824220428E0,9.854840668E0
1.653410563E1,3.661386108E-1,6.810836792E-1,9.842632141E0,9.872960039E0
1.654413762E1,3.565585327E-1,6.891668701E-1,9.856104126E0,9.886600705E0
1.655416862E1,3.294648743E-1,6.707551575E-1,9.845925293E0,9.874244501E0
1.656420062E1,3.365002441E-1,6.643185425E-1,9.852661285E0,9.880763429E0
1.657423163E1,3.570075989E-1,6.656657410E-1,9.890083466E0,9.918886846E0
1.658426362E1,3.528163147E-1,6.727011108E-1,9.864187317E0,9.893391611E0
1.659429462E1,3.817062378E-1,6.923103333E-1,9.823471985E0,9.855231864E0
1.660432663E1,3.701802063E-1,6.948550415E-1,9.761949921E0,9.793647082E0
1.661435763E1,3.550616455E-1,6.905140686E-1,9.739795990E0,9.770696207E0
1.662438962E1,3.667373657E-1,6.843768311E-1,9.755513306E0,9.786363359E0
1.663442162E1,3.478765869E-1,6.724017334E-1,9.813891907E0,9.843049150E0
1.664445263E1,3.463796997E-1,6.297404480E-1,9.869875488E0,9.896008998E0
1.665448462E1,3.492237854E-1,6.267466736E-1,9.863139496E0,9.889200643E0
1.666451562E1,3.412902832E-1,6.170169067E-1,9.821825409E0,9.847103294E0
1.667454763E1,3.336561584E-1,6.122268677E-1,9.775870972E0,9.800704129E0
