"Time (s)","Acceleration x (m/s^2)","Acceleration y (m/s^2)","Acceleration z (m/s^2)","Absolute acceleration (m/s^2)"
1.726666815E-4,-1.166075134E-1,-1.731898499E-1,9.779613190E0,9.781841656E0
1.020466670E-2,-1.287322998E-1,-1.167572021E-2,9.613309021E0,9.614178002E0
2.023566671E-2,-1.971400452E-1,-1.137634277E-2,9.428443451E0,9.430511096E0
3.026666667E-2,-3.626957703E-1,-6.017486572E-2,9.246721344E0,9.254027493E0
4.029866669E-2,-3.129991150E-1,-1.939965820E-1,9.305549011E0,9.312832304E0
5.032966670E-2,-2.225871277E-1,-2.366578674E-1,9.589658203E0,9.595160052E0
6.036066671E-2,-1.742376709E-1,-2.177970886E-1,9.917476501E0,9.921397810E0
7.039266668E-2,-6.331832886E-2,-2.612068176E-1,1.009725266E1,1.010082914E1
8.042366669E-2,-1.092727661E-2,-2.972817993E-1,1.019724472E1,1.020158300E1
9.045466670E-2,-2.305206299E-2,-3.303630066E-1,1.020907013E1,1.021443998E1
1.004866667E-1,-1.414558411E-1,-3.273692322E-1,1.012135254E1,1.012763337E1
1.105176667E-1,-2.546205139E-1,-3.097059631E-1,9.973460083E0,9.981515687E0
1.205486667E-1,-3.285667419E-1,-2.827619934E-1,9.820927277E0,9.830489460E0
1.305806667E-1,-3.116519165E-1,-2.231858826E-1,9.700876923E0,9.708447452E0
1.406116667E-1,-2.628533936E-1,-1.920506287E-1,9.619895325E0,9.625401883E0
1.506426667E-1,-2.275268555E-1,-1.616638184E-1,9.602531433E0,9.606586989E0
1.606746667E-1,-2.044747925E-1,-1.351689148E-1,9.658065948E0,9.661175831E0
1.707056667E-1,-2.068698120E-1,-1.466949463E-1,9.749675446E0,9.752973178E0
1.807366667E-1,-1.911524963E-1,-1.544787598E-1,9.854158173E0,9.857222543E0
1.907686667E-1,-1.995350647E-1,-1.884580994E-1,9.947863312E0,9.951648867E0
2.007996667E-1,-1.860630798E-1,-2.149530029E-1,9.996063080E0,1.000010507E1
2.108306667E-1,-1.725910950E-1,-2.215393066E-1,1.000788849E1,1.001182797E1
2.208616667E-1,-1.859133911E-1,-2.154020691E-1,9.981842651E0,9.985897284E0
2.308936667E-1,-1.875599670E-1,-2.053729248E-1,9.908644867E0,9.912547598E0
2.409246667E-1,-2.020797729E-1,-1.829196167E-1,9.855355682E0,9.859124274E0
2.509556667E-1,-2.284249878E-1,-1.743873596E-1,9.798174591E0,9.802388191E0
2.609876667E-1,-2.339634705E-1,-1.670526123E-1,9.782906342E0,9.787129404E0
2.710186667E-1,-2.101629639E-1,-1.871109009E-1,9.784852295E0,9.788897455E0
2.810496667E-1,-2.191442871E-1,-2.049238586E-1,9.789642334E0,9.794238870E0
2.910816667E-1,-2.249821472E-1,-2.116598511E-1,9.804461517E0,9.809326302E0
3.011126667E-1,-2.157014465E-1,-2.333647156E-1,9.858349457E0,9.863469989E0
3.111436667E-1,-1.935475159E-1,-2.387535095E-1,9.919272766E0,9.924033257E0
3.211756667E-1,-1.496887207E-1,-2.216889954E-1,9.941576385E0,9.945174395E0
3.312066667E-1,-1.508862305E-1,-1.968406677E-1,9.913883972E0,9.916985848E0
3.412376667E-1,-1.585203552E-1,-1.754351807E-1,9.847721558E0,9.850559684E0
3.512696667E-1,-1.916015625E-1,-1.552272034E-1,9.794582062E0,9.797685666E0
3.613006667E-1,-2.493814087E-1,-1.567240906E-1,9.770182800E0,9.774621501E0
3.713316667E-1,-2.647993469E-1,-1.758842468E-1,9.801617432E0,9.806771040E0
3.813636667E-1,-2.585124207E-1,-2.028282166E-1,9.848020935E0,9.853501119E0
3.913946667E-1,-2.157014465E-1,-2.290237427E-1,9.837542725E0,9.842572115E0
4.014256667E-1,-2.131567383E-1,-2.213896179E-1,9.792037354E0,9.796858920E0
4.114576667E-1,-2.055226135E-1,-2.113604736E-1,9.842033386E0,9.846447784E0
4.214886667E-1,-1.505868530E-1,-2.216889954E-1,9.988428955E0,9.992023589E0
4.315196667E-1,-9.834548950E-2,-2.140548706E-1,1.009321106E1,1.009595963E1
4.415516667E-1,-1.056802368E-1,-2.116598511E-1,9.977950745E0,9.980754945E0
4.515826667E-1,-1.809736633E-1,-2.112107849E-1,9.744136963E0,9.748105796E0
4.616136667E-1,-2.978805542E-1,-1.845661926E-1,9.619146881E0,9.625527737E0
4.716456667E-1,-3.511697388E-1,-1.830693054E-1,9.692793732E0,9.700880624E0
4.816766667E-1,-2.821632385E-1,-1.823208618E-1,9.848769379E0,9.854497210E0
4.917076667E-1,-1.983375549E-1,-2.154020691E-1,9.967322845E0,9.971622764E0
5.017396667E-1,-1.258882141E-1,-2.408491516E-1,9.975855103E0,9.979556162E0
5.117706667E-1,-9.610015869E-2,-2.484832764E-1,9.893526306E0,9.897112809E0
5.218016667E-1,-1.196012878E-1,-2.233355713E-1,9.840386810E0,9.843647486E0
5.318336667E-1,-1.833686829E-1,-1.769320679E-1,9.838291168E0,9.841590427E0
5.418646667E-1,-2.365081787E-1,-1.329235840E-1,9.845625916E0,9.849363150E0
5.518956667E-1,-2.827619934E-1,-1.128652954E-1,9.855056305E0,9.859757994E0
5.619276667E-1,-2.549198914E-1,-9.071136475E-2,9.878108368E0,9.881813479E0
5.719586667E-1,-1.974394226E-1,-8.726852417E-2,9.868528290E0,9.870888953E0
5.819896667E-1,-1.784289551E-1,-9.669891357E-2,9.873318329E0,9.875403910E0
5.920206667E-1,-1.845661926E-1,-1.104702759E-1,9.881700897E0,9.884041733E0
6.020526667E-1,-1.788780212E-1,-1.456471252E-1,9.906848602E0,9.909533776E0
6.120836667E-1,-1.847158813E-1,-1.866618347E-1,9.873318329E0,9.876810083E0
6.221146667E-1,-2.011816406E-1,-2.231858826E-1,9.864935760E0,9.869510806E0
6.321466667E-1,-2.005828857E-1,-2.456391907E-1,9.850565643E0,9.855669211E0
6.421776667E-1,-1.953437805E-1,-2.656974792E-1,9.827363892E0,9.832895576E0
6.522086667E-1,-2.213896179E-1,-2.743794250E-1,9.825118561E0,9.831442019E0
6.622406667E-1,-2.236349487E-1,-2.622546387E-1,9.810449066E0,9.816501463E0
6.722713333E-1,-2.022294617E-1,-2.436932373E-1,9.811347198E0,9.816456438E0
6.823023334E-1,-2.020797729E-1,-2.300715637E-1,9.832153931E0,9.836921270E0
6.923343334E-1,-1.908531189E-1,-2.282752991E-1,9.842332764E0,9.846829376E0
7.023653333E-1,-1.947450256E-1,-1.923500061E-1,9.868677979E0,9.872473307E0
7.123963333E-1,-1.951940918E-1,-1.770817566E-1,9.911788330E0,9.915291553E0
7.224283334E-1,-1.987866211E-1,-1.733395386E-1,9.837692413E0,9.841227298E0
7.324593334E-1,-2.483335876E-1,-1.558259583E-1,9.804611206E0,9.808993435E0
7.424903333E-1,-2.692900085E-1,-1.237925720E-1,9.798923035E0,9.803404222E0
7.525223334E-1,-2.438429260E-1,-1.410067749E-1,9.810449066E0,9.814491997E0
7.625533334E-1,-2.106120300E-1,-1.407073975E-1,9.895771637E0,9.899012693E0
7.725843334E-1,-1.462458801E-1,-1.501377869E-1,9.928553467E0,9.930765487E0
7.826163333E-1,-1.089733887E-1,-1.760339355E-1,9.900411987E0,9.902576466E0
7.926473334E-1,-1.405577087E-1,-2.101629639E-1,9.866582336E0,9.869821272E0
8.026783334E-1,-1.788780212E-1,-2.134561157E-1,9.859996033E0,9.863928357E0
8.127103334E-1,-2.128573608E-1,-2.110610962E-1,9.851613464E0,9.856172832E0
8.227413333E-1,-2.418969727E-1,-2.146536255E-1,9.873767395E0,9.879062349E0
8.327723333E-1,-2.347119141E-1,-2.019300842E-1,9.849517822E0,9.854383125E0
8.428043334E-1,-2.248324585E-1,-1.872605896E-1,9.843530273E0,9.847878168E0
8.528353334E-1,-2.025288391E-1,-1.610650635E-1,9.854457550E0,9.857854406E0
8.628663333E-1,-1.901046753E-1,-1.579216003E-1,9.873318329E0,9.876410980E0
8.728983334E-1,-1.820214844E-1,-1.318757629E-1,9.887089691E0,9.889644362E0
8.829293334E-1,-1.643582153E-1,-1.540296936E-1,9.883048096E0,9.885614722E0
8.929603334E-1,-1.700463867E-1,-1.901046753E-1,9.874216461E0,9.877510126E0
9.029923333E-1,-1.797761536E-1,-2.016307068E-1,9.860594788E0,9.864294398E0
9.130233334E-1,-1.936972046E-1,-2.450404358E-1,9.864636383E0,9.869580254E0
9.230543334E-1,-2.032772827E-1,-2.709365845E-1,9.856852570E0,9.862670575E0
9.330863333E-1,-2.037263489E-1,-2.547702026E-1,9.840686188E0,9.846091454E0
9.431173333E-1,-2.161505127E-1,-2.469863892E-1,9.835147705E0,9.840622628E0
9.531483334E-1,-2.077679443E-1,-2.392025757E-1,9.797725525E0,9.802847079E0
9.631803334E-1,-2.212399292E-1,-2.318678284E-1,9.789642334E0,9.794886769E0
9.732113333E-1,-2.227368164E-1,-2.154020691E-1,9.800419922E0,9.805316945E0
9.832423333E-1,-2.092648315E-1,-1.981878662E-1,9.813143463E0,9.817375150E0
9.932743334E-1,-2.053729248E-1,-1.779798889E-1,9.852810974E0,9.856558171E0
1.003305333E0,-2.025288391E-1,-1.710942078E-1,9.880802765E0,9.884359081E0
1.013336333E0,-1.895059204E-1,-1.910028076E-1,9.882449341E0,9.886111447E0
1.023367333E0,-2.118095398E-1,-1.886077881E-1,9.869276733E0,9.873350972E0
1.033399333E0,-2.113604736E-1,-1.883084106E-1,9.859846344E0,9.863909125E0
1.043430333E0,-2.345622253E-1,-1.785786438E-1,9.862091675E0,9.866496945E0
1.053461333E0,-2.330653381E-1,-1.830693054E-1,9.861043854E0,9.865496425E0
1.063493333E0,-2.357597351E-1,-1.751358032E-1,9.844727783E0,9.849107590E0
1.073524333E0,-2.312690735E-1,-1.622625732E-1,9.838440857E0,9.842496280E0
1.083555333E0,-2.309696960E-1,-1.679507446E-1,9.825567627E0,9.829716865E0
1.093587333E0,-2.145039368E-1,-1.859133911E-1,9.832153931E0,9.836250640E0
1.103618333E0,-1.951940918E-1,-1.881587219E-1,9.830657043E0,9.834394864E0
1.113649333E0,-2.014810181E-1,-1.987866211E-1,9.850865021E0,9.854930359E0
1.123681333E0,-1.697470093E-1,-2.151026917E-1,9.865684204E0,9.869488742E0
1.133712333E0,-1.791773987E-1,-2.200424194E-1,9.892029419E0,9.896098687E0
1.143743333E0,-1.996847534E-1,-2.131567383E-1,9.872719574E0,9.877039110E0
1.153775333E0,-2.201921082E-1,-2.191442871E-1,9.848619690E0,9.853518081E0
1.163806333E0,-2.239343262E-1,-2.369572449E-1,9.859097900E0,9.864487150E0
1.173837333E0,-2.161505127E-1,-2.254312134E-1,9.885892181E0,9.890824258E0
1.183869333E0,-1.956431580E-1,-1.954934692E-1,9.886940002E0,9.890807680E0
1.193900333E0,-1.939965820E-1,-1.772314453E-1,9.861043854E0,9.864544163E0
1.203931333E0,-2.055226135E-1,-1.794767761E-1,9.794731750E0,9.798531600E0
1.213963333E0,-2.306703186E-1,-1.736389160E-1,9.762548676E0,9.766817082E0
1.223994333E0,-2.526745605E-1,-1.833686829E-1,9.799372101E0,9.804344041E0
1.234025333E0,-2.571652222E-1,-2.028282166E-1,9.851164398E0,9.856607593E0
1.244057333E0,-2.441423035E-1,-2.323168945E-1,9.895172882E0,9.900910209E0
1.254088333E0,-2.130070496E-1,-2.423460388E-1,9.878258057E0,9.883525982E0
1.264119333E0,-2.110610962E-1,-2.239343262E-1,9.813293152E0,9.818116716E0
1.274151333E0,-2.125579834E-1,-2.264790344E-1,9.842033386E0,9.846933270E0
1.284182333E0,-1.860630798E-1,-1.974394226E-1,9.919123077E0,9.922832480E0
1.294213333E0,-1.432521057E-1,-2.050735474E-1,1.001836670E1,1.002148929E1
1.304245333E0,-1.356179810E-1,-2.207908630E-1,9.988428955E0,9.991789321E0
1.314276333E0,-1.880090332E-1,-2.230361938E-1,9.763446808E0,9.767803546E0
1.324307333E0,-2.972817993E-1,-2.285746765E-1,9.665400696E0,9.672672509E0
1.334339333E0,-3.430865479E-1,-2.303709412E-1,9.733958130E0,9.742726519E0
1.344370333E0,-2.975811768E-1,-2.213896179E-1,9.839788055E0,9.846775965E0
1.354401333E0,-2.089654541E-1,-2.453398132E-1,9.947264557E0,9.952483627E0
1.364433333E0,-1.276844788E-1,-2.594105530E-1,9.945318604E0,9.949520556E0
1.374464333E0,-9.415420532E-2,-2.222877502E-1,9.868977356E0,9.871929442E0
1.384495333E0,-1.434017944E-1,-1.863624573E-1,9.793833618E0,9.796656163E0
1.394526333E0,-2.083666992E-1,-1.561253357E-1,9.787397003E0,9.790859610E0
1.404558333E0,-2.558180237E-1,-1.222956848E-1,9.805060272E0,9.809159293E0
1.414589333E0,-2.737806702E-1,-1.058299255E-1,9.827513580E0,9.831896002E0
1.424620333E0,-2.532733154E-1,-1.185534668E-1,9.850116577E0,9.854085390E0
1.434652333E0,-2.128573608E-1,-1.267863464E-1,9.863289185E0,9.866400386E0
1.444683333E0,-2.083666992E-1,-1.261875916E-1,9.892478485E0,9.895477278E0
1.454714333E0,-1.868115234E-1,-1.504371643E-1,9.936786346E0,9.939680718E0
1.464746333E0,-1.793270874E-1,-1.969903564E-1,9.952503662E0,9.956068127E0
1.474777333E0,-1.859133911E-1,-2.213896179E-1,9.911339264E0,9.915554607E0
1.484808333E0,-2.035766602E-1,-2.514770508E-1,9.879006500E0,9.884303395E0
1.494840333E0,-2.097138977E-1,-2.823129272E-1,9.825417938E0,9.831709829E0
1.504871333E0,-2.227368164E-1,-2.827619934E-1,9.803563385E0,9.810169269E0
1.514902333E0,-2.402503967E-1,-2.785707092E-1,9.785001984E0,9.791914303E0
1.524934333E0,-2.234852600E-1,-2.517764282E-1,9.779912567E0,9.785705230E0
1.534965333E0,-2.068698120E-1,-2.484832764E-1,9.771979065E0,9.777326521E0
1.544996333E0,-2.062710571E-1,-2.161505127E-1,9.799521790E0,9.804075484E0
1.555028333E0,-1.836680603E-1,-2.113604736E-1,9.852511597E0,9.856489840E0
1.565059333E0,-1.959425354E-1,-1.916015625E-1,9.890083466E0,9.893879704E0
1.575090333E0,-1.963916016E-1,-2.014810181E-1,9.917626190E0,9.921616477E0
1.585122333E0,-2.137554932E-1,-2.029779053E-1,9.849966888E0,9.854376649E0
1.595153333E0,-2.583627319E-1,-1.745370483E-1,9.800569611E0,9.805527991E0
1.605184333E0,-2.857557678E-1,-1.522334290E-1,9.829010468E0,9.834341775E0
1.615216333E0,-2.639012146E-1,-1.447489929E-1,9.828860779E0,9.833468377E0
1.625247333E0,-2.189945984E-1,-1.562750244E-1,9.850865021E0,9.854538151E0
1.635278333E0,-1.486408997E-1,-1.591191101E-1,9.880952454E0,9.883351375E0
1.645310333E0,-1.423539734E-1,-1.758842468E-1,9.868378601E0,9.870972401E0
1.655341333E0,-1.505868530E-1,-1.880090332E-1,9.851314087E0,9.854258624E0
1.665372333E0,-1.776805115E-1,-2.085163879E-1,9.873318329E0,9.877118217E0
1.675404583E0,-2.195933533E-1,-2.017803955E-1,9.891280975E0,9.895775659E0
1.685435583E0,-2.324665833E-1,-2.109114075E-1,9.877060547E0,9.882046821E0
1.695466583E0,-2.401007080E-1,-2.174977112E-1,9.859846344E0,9.865167182E0
1.705497583E0,-2.329156494E-1,-1.999841309E-1,9.854008484E0,9.858789305E0
1.715529583E0,-2.222877502E-1,-1.748364258E-1,9.866732025E0,9.870784187E0
1.725560583E0,-2.070195007E-1,-1.978884888E-1,9.881850586E0,9.885999592E0
1.735592583E0,-1.833686829E-1,-1.948947144E-1,9.892777863E0,9.896396408E0
1.745623583E0,-1.694476318E-1,-1.913021851E-1,9.891430664E0,9.894731407E0
1.755654583E0,-1.839674377E-1,-2.008822632E-1,9.877210236E0,9.880965527E0
1.765685583E0,-2.037263489E-1,-2.296224976E-1,9.851912842E0,9.856694048E0
1.775717583E0,-2.019300842E-1,-2.424957275E-1,9.868827667E0,9.873871554E0
1.785748583E0,-1.968406677E-1,-2.667453003E-1,9.841584320E0,9.847166152E0
1.795779583E0,-2.089654541E-1,-2.667453003E-1,9.828711090E0,9.834550387E0
1.805811583E0,-2.165995789E-1,-2.610571289E-1,9.815688171E0,9.821547764E0
1.815842583E0,-2.136058044E-1,-2.430944824E-1,9.810449066E0,9.815784902E0
1.825873583E0,-2.209405518E-1,-2.260299683E-1,9.800120544E0,9.805216314E0
1.835905583E0,-2.222877502E-1,-2.240840149E-1,9.797575836E0,9.802658709E0
1.845936583E0,-2.236349487E-1,-2.177970886E-1,9.810449066E0,9.815414359E0
1.855967583E0,-2.077679443E-1,-2.165995789E-1,9.828711090E0,9.833292663E0
1.865999583E0,-2.070195007E-1,-2.251318359E-1,9.866732025E0,9.871471130E0
1.876030583E0,-2.221380615E-1,-2.350112915E-1,9.883197784E0,9.888486946E0
1.886061583E0,-2.131567383E-1,-2.124082947E-1,9.890831909E0,9.895408477E0
1.896093583E0,-2.321672058E-1,-2.085163879E-1,9.887239380E0,9.892162719E0
1.906124583E0,-2.362088013E-1,-1.962419128E-1,9.872120819E0,9.876896018E0
1.916155583E0,-2.381547546E-1,-1.818717957E-1,9.846524048E0,9.851082725E0
1.926187583E0,-2.384541321E-1,-1.678010559E-1,9.850865021E0,9.855179310E0
1.936218583E0,-2.317181396E-1,-1.603166199E-1,9.846673737E0,9.850704462E0
1.946249583E0,-2.176473999E-1,-1.640588379E-1,9.841434631E0,9.845208037E0
1.956281583E0,-2.242337036E-1,-1.823208618E-1,9.839788055E0,9.844031218E0
1.966312583E0,-2.131567383E-1,-2.070195007E-1,9.830956421E0,9.835445949E0
1.976343583E0,-2.061213684E-1,-2.338137817E-1,9.854457550E0,9.859385808E0
1.986375583E0,-1.950444031E-1,-2.570155334E-1,9.861193542E0,9.866470361E0
1.996406583E0,-1.942959595E-1,-2.655477905E-1,9.861941986E0,9.867429568E0
2.006437583E0,-2.233355713E-1,-2.667453003E-1,9.845925293E0,9.852069666E0
2.016469583E0,-2.221380615E-1,-2.621049500E-1,9.842632141E0,9.848626899E0
2.026500583E0,-2.269281006E-1,-2.496807861E-1,9.848619690E0,9.854397326E0
2.036531583E0,-2.306703186E-1,-2.264790344E-1,9.866582336E0,9.871876648E0
2.046563583E0,-2.164498901E-1,-2.109114075E-1,9.843380585E0,9.848018862E0
2.056594583E0,-1.969903564E-1,-2.107617188E-1,9.846823425E0,9.851048537E0
2.066625583E0,-1.975891113E-1,-1.956431580E-1,9.821675720E0,9.825611007E0
2.076656583E0,-1.887574768E-1,-1.963916016E-1,9.811347198E0,9.815127757E0
2.086688583E0,-2.158511353E-1,-2.101629639E-1,9.849817200E0,9.854423324E0
2.096719583E0,-2.130070496E-1,-2.005828857E-1,9.871821442E0,9.876156341E0
2.106750583E0,-2.076182556E-1,-2.297721863E-1,9.888736267E0,9.893584060E0
2.116782583E0,-2.305206299E-1,-2.502795410E-1,9.864786072E0,9.870652656E0
2.126813583E0,-2.469863892E-1,-2.384541321E-1,9.838590546E0,9.844578537E0
2.136844583E0,-2.600093079E-1,-2.357597351E-1,9.810149689E0,9.816426254E0
2.146876583E0,-2.498304749E-1,-2.227368164E-1,9.902058563E0,9.907713699E0
2.156907583E0,-1.686991882E-1,-2.272274780E-1,9.997410278E0,1.000141510E1
2.166938583E0,-1.203497314E-1,-2.237846375E-1,9.982890472E0,9.986123663E0
2.176970583E0,-1.742376709E-1,-2.375559998E-1,9.775272217E0,9.779710555E0
2.187001583E0,-2.845582581E-1,-2.309696960E-1,9.670789490E0,9.677731643E0
2.197032583E0,-3.246748352E-1,-2.430944824E-1,9.738748169E0,9.747190599E0
2.207064583E0,-2.984793091E-1,-2.465373230E-1,9.834998016E0,9.842614314E0
2.217095583E0,-2.618055725E-1,-2.580633545E-1,9.914782104E0,9.921594783E0
2.227126583E0,-1.865121460E-1,-2.673440552E-1,9.920320587E0,9.925674797E0
2.237158583E0,-1.492396545E-1,-2.636018372E-1,9.843380585E0,9.848040401E0
2.247189583E0,-1.646575928E-1,-2.368075562E-1,9.792935486E0,9.797182012E0
2.257220583E0,-2.195933533E-1,-1.923500061E-1,9.817933502E0,9.822272549E0
2.267252583E0,-2.591111755E-1,-1.634600830E-1,9.828411713E0,9.833185374E0
2.277283583E0,-2.818638611E-1,-1.257385254E-1,9.840087433E0,9.844926516E0
2.287314583E0,-2.734812927E-1,-1.288819885E-1,9.855056305E0,9.859692559E0
2.297346583E0,-2.317181396E-1,-1.469943237E-1,9.873318329E0,9.877130932E0
2.307377583E0,-1.893562317E-1,-1.595681763E-1,9.895023193E0,9.898121124E0
2.317408583E0,-1.883084106E-1,-1.736389160E-1,9.945168915E0,9.948466981E0
2.327440583E0,-1.932481384E-1,-2.227368164E-1,9.957892456E0,9.962257711E0
2.337471583E0,-1.959425354E-1,-2.492317200E-1,9.935888214E0,9.940944851E0
2.347502583E0,-1.975891113E-1,-2.817141724E-1,9.883946228E0,9.889934144E0
2.357534583E0,-2.133064270E-1,-2.956352234E-1,9.818232880E0,9.824998560E0
2.367565583E0,-2.447410583E-1,-2.960842896E-1,9.764943695E0,9.772496583E0
2.377596583E0,-2.460882568E-1,-2.790197754E-1,9.743388519E0,9.750488773E0
2.387627583E0,-2.655477905E-1,-2.637515259E-1,9.744885406E0,9.752070143E0
2.397659583E0,-2.454895020E-1,-2.463876343E-1,9.776769104E0,9.782953852E0
2.407690583E0,-2.341131592E-1,-2.427951050E-1,9.820178833E0,9.825969201E0
2.417721583E0,-2.007325745E-1,-2.371069336E-1,9.854756927E0,9.859652497E0
2.427753583E0,-1.899549866E-1,-2.203417969E-1,9.877958679E0,9.882241703E0
2.437784583E0,-2.130070496E-1,-2.198927307E-1,9.881700897E0,9.886442102E0
2.447815583E0,-2.351609802E-1,-2.037263489E-1,9.868378601E0,9.873282196E0
2.457847583E0,-2.844085693E-1,-1.824705505E-1,9.870324554E0,9.876107054E0
2.467878583E0,-2.779719543E-1,-1.652563477E-1,9.856403503E0,9.861707159E0
2.477909583E0,-2.567161560E-1,-1.694476318E-1,9.841434631E0,9.846240465E0
2.487941583E0,-2.061213684E-1,-1.654060364E-1,9.804162140E0,9.807723510E0
2.497972583E0,-1.850152588E-1,-1.683998108E-1,9.811197510E0,9.814386670E0
2.508003583E0,-1.844165039E-1,-1.945953369E-1,9.865684204E0,9.869326300E0
2.518035583E0,-1.835183716E-1,-2.179467773E-1,9.901759186E0,9.905857599E0
2.528066583E0,-1.941462708E-1,-2.118095398E-1,9.927355957E0,9.931513095E0
2.538097583E0,-2.074685669E-1,-2.210902405E-1,9.922715607E0,9.927346529E0
2.548129583E0,-2.215393066E-1,-2.215393066E-1,9.882000275E0,9.886965599E0
2.558160583E0,-2.347119141E-1,-2.061213684E-1,9.834399261E0,9.839358949E0
2.568191583E0,-2.372566223E-1,-2.127076721E-1,9.832153931E0,9.837316005E0
2.578223583E0,-2.399510193E-1,-2.116598511E-1,9.833052063E0,9.838256413E0
2.588254583E0,-2.263293457E-1,-2.101629639E-1,9.850865021E0,9.855705713E0
2.598285583E0,-2.176473999E-1,-1.922003174E-1,9.886041870E0,9.890305112E0
2.608317583E0,-2.001338196E-1,-1.908531189E-1,9.868677979E0,9.872552026E0
2.618348583E0,-2.064207458E-1,-1.857637024E-1,9.855804749E0,9.859716270E0
2.628379583E0,-2.091151428E-1,-2.020797729E-1,9.825268250E0,9.829570772E0
2.638411583E0,-2.231858826E-1,-2.073188782E-1,9.792187042E0,9.796924013E0
2.648442583E0,-2.219883728E-1,-2.496807861E-1,9.802665253E0,9.808356916E0
2.658473583E0,-2.347119141E-1,-2.733316040E-1,9.824819183E0,9.831422676E0
2.668504583E0,-2.453398132E-1,-2.838098145E-1,9.827363892E0,9.834521884E0
2.678535583E0,-2.203417969E-1,-2.914439392E-1,9.821526031E0,9.828319473E0
2.688566583E0,-2.049238586E-1,-2.677931213E-1,9.832902374E0,9.838682638E0
2.698597583E0,-2.011816406E-1,-2.447410583E-1,9.834548950E0,9.839650669E0
2.708629583E0,-2.067201233E-1,-2.351609802E-1,9.846074982E0,9.851052047E0
2.718660583E0,-2.158511353E-1,-2.034269714E-1,9.872569885E0,9.877024369E0
2.728691583E0,-2.237846375E-1,-1.856140137E-1,9.861343231E0,9.865628335E0
2.738723583E0,-2.290237427E-1,-1.746867371E-1,9.867779846E0,9.871982902E0
2.748754583E0,-2.472857666E-1,-1.763333130E-1,9.846823425E0,9.851506243E0
2.758785583E0,-2.583627319E-1,-1.797761536E-1,9.833650818E0,9.838686862E0
2.768817583E0,-2.610571289E-1,-1.742376709E-1,9.831405487E0,9.836414156E0
2.778848583E0,-2.576142883E-1,-1.757345581E-1,9.845476227E0,9.850413691E0
2.788879583E0,-2.353106689E-1,-1.913021851E-1,9.852511597E0,9.857177710E0
2.798911583E0,-2.254312134E-1,-1.999841309E-1,9.888586578E0,9.893177316E0
2.808942583E0,-2.113604736E-1,-2.128573608E-1,9.859546967E0,9.864109077E0
2.818973583E0,-2.311193848E-1,-2.083666992E-1,9.838889923E0,9.843809617E0
2.829005583E0,-2.390528870E-1,-2.131567383E-1,9.836045837E0,9.841259055E0
2.839036583E0,-2.148033142E-1,-2.327659607E-1,9.876910858E0,9.881988087E0
2.849067583E0,-2.007325745E-1,-2.209405518E-1,9.892179108E0,9.896682060E0
2.859099583E0,-1.910028076E-1,-1.975891113E-1,9.851613464E0,9.855445773E0
2.869130583E0,-2.043251038E-1,-1.782792664E-1,9.813442841E0,9.817188632E0
2.879161583E0,-2.245330811E-1,-1.745370483E-1,9.785750427E0,9.789882007E0
2.889193583E0,-2.564167786E-1,-1.935475159E-1,9.790839844E0,9.796109179E0
2.899224583E0,-2.540217590E-1,-2.183958435E-1,9.826615448E0,9.832323986E0
2.909255583E0,-2.495310974E-1,-2.354603577E-1,9.878557434E0,9.884513358E0
2.919287583E0,-2.227368164E-1,-2.430944824E-1,9.870623932E0,9.876128969E0
2.929318583E0,-2.189945984E-1,-2.540217590E-1,9.808054047E0,9.813786724E0
2.939349583E0,-2.113604736E-1,-2.426454163E-1,9.844578094E0,9.849835933E0
2.949381583E0,-1.827699280E-1,-2.348616028E-1,9.960437164E0,9.964882002E0
2.959412583E0,-1.489402771E-1,-2.363584900E-1,1.004980133E1,1.005368367E1
2.969443583E0,-1.425036621E-1,-2.252815247E-1,9.962832184E0,9.966397754E0
2.979474583E0,-2.103126526E-1,-2.234852600E-1,9.736652527E0,9.741487541E0
2.989506583E0,-3.106040955E-1,-2.209405518E-1,9.628427582E0,9.635969455E0
2.999537583E0,-3.360511780E-1,-2.022294617E-1,9.694440308E0,9.702370846E0
3.009568583E0,-2.905458069E-1,-2.022294617E-1,9.854307861E0,9.860664128E0
3.019600583E0,-2.157014465E-1,-2.409988403E-1,9.960736542E0,9.965986153E0
3.029631583E0,-1.164578247E-1,-2.507286072E-1,9.967322845E0,9.971155999E0
3.039662583E0,-9.520202637E-2,-2.469863892E-1,9.889933777E0,9.893475416E0
3.049694583E0,-1.477427673E-1,-2.293231201E-1,9.808353424E0,9.812146244E0
3.059725583E0,-2.139051819E-1,-1.826202393E-1,9.807455292E0,9.811487394E0
3.069756583E0,-2.754272461E-1,-1.622625732E-1,9.813293152E0,9.818498449E0
3.079788583E0,-2.975811768E-1,-1.309776306E-1,9.838740234E0,9.844110884E0
3.089819583E0,-2.767744446E-1,-1.185534668E-1,9.843829651E0,9.848433440E0
3.099850583E0,-2.300715637E-1,-1.007405090E-1,9.865085449E0,9.868282145E0
3.109882583E0,-1.878593445E-1,-1.110690308E-1,9.892029419E0,9.894436492E0
3.119913583E0,-1.628613281E-1,-1.227447510E-1,9.929301910E0,9.931396000E0
3.129944583E0,-1.649569702E-1,-1.459465027E-1,9.937085724E0,9.939526340E0
3.139976583E0,-1.892065430E-1,-1.948947144E-1,9.910740509E0,9.914462189E0
3.150007583E0,-2.097138977E-1,-2.309696960E-1,9.870174866E0,9.875103989E0
3.160038583E0,-2.168989563E-1,-2.631527710E-1,9.840237122E0,9.846144481E0
3.170070583E0,-2.362088013E-1,-2.796185303E-1,9.790989532E0,9.797829206E0
3.180101583E0,-2.541714478E-1,-2.775228882E-1,9.775870972E0,9.783111741E0
3.190132583E0,-2.381547546E-1,-2.733316040E-1,9.784702606E0,9.791416289E0
3.200164583E0,-2.293231201E-1,-2.496807861E-1,9.799671478E0,9.805533676E0
3.210195583E0,-2.127076721E-1,-2.471360779E-1,9.832902374E0,9.838307268E0
3.220226583E0,-1.883084106E-1,-2.266287231E-1,9.833201752E0,9.837615429E0
3.230258583E0,-1.881587219E-1,-2.218386841E-1,9.879754944E0,9.884036314E0
3.240289583E0,-1.803749084E-1,-1.965412903E-1,9.901609497E0,9.905202382E0
3.250320583E0,-2.085163879E-1,-1.872605896E-1,9.854607239E0,9.858591656E0
3.260351583E0,-2.350112915E-1,-1.773811340E-1,9.809550934E0,9.813968815E0
3.270383583E0,-2.941383362E-1,-1.526824951E-1,9.821526031E0,9.827115695E0
3.280414583E0,-2.847079468E-1,-1.399589539E-1,9.795779572E0,9.800915495E0
3.290445583E0,-2.293231201E-1,-1.529818726E-1,9.829160156E0,9.833025065E0
3.300477583E0,-1.686991882E-1,-1.615141296E-1,9.885443115E0,9.888201647E0
3.310508583E0,-1.450483704E-1,-1.808239746E-1,9.882449341E0,9.885167743E0
3.320539583E0,-1.613644409E-1,-2.049238586E-1,9.875713348E0,9.879157171E0
3.330571583E0,-1.901046753E-1,-2.284249878E-1,9.875114594E0,9.879585315E0
3.340602583E0,-2.182461548E-1,-2.177970886E-1,9.870324554E0,9.875139177E0
3.350633583E0,-2.255809021E-1,-2.137554932E-1,9.889784088E0,9.894665606E0
3.360665583E0,-2.380050659E-1,-2.171983337E-1,9.866881714E0,9.872141423E0
3.370696583E0,-2.302212524E-1,-2.019300842E-1,9.843380585E0,9.848142917E0
3.380727583E0,-2.261796570E-1,-1.718426514E-1,9.855205994E0,9.859298774E0
3.390759583E0,-2.085163879E-1,-1.606159973E-1,9.856403503E0,9.859917170E0
3.400790583E0,-2.019300842E-1,-1.710942078E-1,9.874815216E0,9.878361430E0
3.410821583E0,-1.914518738E-1,-1.772314453E-1,9.880802765E0,9.884246460E0
3.420853583E0,-2.007325745E-1,-1.974394226E-1,9.859696655E0,9.863716035E0
3.430884583E0,-2.189945984E-1,-2.189945984E-1,9.847272491E0,9.852141533E0
3.440915583E0,-2.191442871E-1,-2.475851440E-1,9.829309845E0,9.834869326E0
3.450947583E0,-2.264790344E-1,-2.480342102E-1,9.831555176E0,9.837290831E0
3.460978583E0,-2.079176331E-1,-2.564167786E-1,9.834099884E0,9.839639213E0
3.471009583E0,-2.031275940E-1,-2.609074402E-1,9.842482452E0,9.848035050E0
3.481041583E0,-2.073188782E-1,-2.513273621E-1,9.814939728E0,9.820345636E0
3.491072583E0,-2.071691895E-1,-2.411485291E-1,9.811796265E0,9.816945433E0
3.501103583E0,-2.200424194E-1,-2.095642090E-1,9.817783813E0,9.822485166E0
3.511135583E0,-2.216889954E-1,-2.068698120E-1,9.837243347E0,9.841915352E0
3.521166583E0,-2.233355713E-1,-2.154020691E-1,9.843530273E0,9.848419420E0
3.531197583E0,-2.237846375E-1,-2.022294617E-1,9.868677979E0,9.873286249E0
3.541228583E0,-2.345622253E-1,-2.020797729E-1,9.868977356E0,9.873832575E0
3.551260583E0,-2.239343262E-1,-2.025288391E-1,9.875563660E0,9.880178243E0
3.561291583E0,-2.185455322E-1,-1.956431580E-1,9.877509613E0,9.881863921E0
3.571322583E0,-2.245330811E-1,-1.808239746E-1,9.875563660E0,9.879770747E0
3.581354583E0,-2.266287231E-1,-1.758842468E-1,9.851463776E0,9.855639724E0
3.591385583E0,-2.315684509E-1,-1.790277100E-1,9.852212219E0,9.856559262E0
3.601416583E0,-2.186952209E-1,-1.859133911E-1,9.881102142E0,9.885270403E0
3.611448583E0,-2.245330811E-1,-2.095642090E-1,9.859996033E0,9.864778458E0
3.621479583E0,-2.243833923E-1,-2.013313293E-1,9.827214203E0,9.831837122E0
3.631510583E0,-2.420466614E-1,-2.326162720E-1,9.822124786E0,9.827860003E0
3.641542583E0,-2.321672058E-1,-2.264790344E-1,9.833650818E0,9.838998057E0
3.651573583E0,-2.037263489E-1,-2.151026917E-1,9.876611481E0,9.881053989E0
3.661604583E0,-1.797761536E-1,-2.209405518E-1,9.899214478E0,9.903311641E0
3.671637417E0,-1.529818726E-1,-1.874102783E-1,9.888586578E0,9.891545409E0
3.681668417E0,-1.636097717E-1,-1.676513672E-1,9.822424164E0,9.825217127E0
3.691699417E0,-1.911524963E-1,-1.667532349E-1,9.797575836E0,9.800859053E0
3.701731417E0,-2.335144043E-1,-1.939965820E-1,9.800569611E0,9.805270437E0
3.711762417E0,-2.603086853E-1,-2.207908630E-1,9.839039612E0,9.844958593E0
3.721793417E0,-2.386038208E-1,-2.508782959E-1,9.880503387E0,9.886567599E0
3.731825417E0,-2.113604736E-1,-2.591111755E-1,9.833052063E0,9.838735931E0
3.741856417E0,-2.266287231E-1,-2.595602417E-1,9.801318054E0,9.807373129E0
3.751887417E0,-2.182461548E-1,-2.460882568E-1,9.887239380E0,9.892709102E0
3.761919417E0,-1.670526123E-1,-2.360591125E-1,1.000878662E1,1.001296360E1
3.771950417E0,-1.255888367E-1,-2.163002014E-1,1.005399261E1,1.005710325E1
3.781981417E0,-1.472937012E-1,-2.127076721E-1,9.879455566E0,9.882842824E0
3.792012417E0,-2.472857666E-1,-2.149530029E-1,9.677974548E0,9.683519319E0
3.802044417E0,-3.382965088E-1,-2.070195007E-1,9.643097076E0,9.651249806E0
3.812075417E0,-3.357518005E-1,-1.905537415E-1,9.768087158E0,9.775713106E0
3.822106417E0,-2.559677124E-1,-2.149530029E-1,9.930200043E0,9.935823929E0
3.832138417E0,-1.673519897E-1,-2.345622253E-1,9.986483002E0,9.990639062E0
3.842169417E0,-1.124162292E-1,-2.540217590E-1,9.936936035E0,9.940817986E0
3.852200417E0,-1.128652954E-1,-2.478845215E-1,9.842931519E0,9.846699254E0
3.862232417E0,-1.799258423E-1,-2.151026917E-1,9.783954163E0,9.787972289E0
3.872263417E0,-2.547702026E-1,-1.830693054E-1,9.797875214E0,9.802896558E0
3.882294417E0,-2.896476746E-1,-1.474433899E-1,9.832752686E0,9.838122824E0
3.892326417E0,-2.836601257E-1,-1.362167358E-1,9.870923309E0,9.875937679E0
3.902357417E0,-2.547702026E-1,-1.387614441E-1,9.866881714E0,9.871145696E0
3.912388417E0,-1.812730408E-1,-1.255888367E-1,9.897717590E0,9.900174037E0
3.922420417E0,-1.661544800E-1,-1.193019104E-1,9.916728058E0,9.918837413E0
3.932451417E0,-1.609153748E-1,-1.405577087E-1,9.922565918E0,9.924865975E0
3.942482417E0,-1.850152588E-1,-1.790277100E-1,9.900262299E0,9.903609198E0
3.952514417E0,-1.704954529E-1,-2.103126526E-1,9.882898407E0,9.886606143E0
3.962545417E0,-2.071691895E-1,-2.321672058E-1,9.834099884E0,9.839021354E0
3.972576417E0,-2.272274780E-1,-2.667453003E-1,9.821076965E0,9.827326093E0
3.982608417E0,-2.472857666E-1,-2.797682190E-1,9.786947937E0,9.794068125E0
3.992639417E0,-2.534230042E-1,-2.920426941E-1,9.781259766E0,9.788899568E0
4.002670417E0,-2.335144043E-1,-2.649490356E-1,9.796827393E0,9.803191007E0
4.012702417E0,-2.149530029E-1,-2.508782959E-1,9.834998016E0,9.840545244E0
4.022733417E0,-1.889071655E-1,-2.579136658E-1,9.852361908E0,9.857547390E0
4.032764417E0,-1.712438965E-1,-2.197430420E-1,9.881551208E0,9.885477518E0
4.042796417E0,-1.685494995E-1,-2.037263489E-1,9.923464050E0,9.926986054E0
4.052827417E0,-1.814227295E-1,-1.942959595E-1,9.908944244E0,9.912509327E0
4.062858417E0,-2.176473999E-1,-1.776805115E-1,9.805509338E0,9.809533839E0
4.072889417E0,-2.664459229E-1,-1.525328064E-1,9.801916809E0,9.806723858E0
4.082921417E0,-2.914439392E-1,-1.469943237E-1,9.792037354E0,9.797476330E0
4.092952417E0,-2.510279846E-1,-1.402583313E-1,9.817035370E0,9.821245894E0
4.102983417E0,-2.034269714E-1,-1.495390320E-1,9.877958679E0,9.881184753E0
4.113015417E0,-1.448986816E-1,-1.805245972E-1,9.903854828E0,9.906559706E0
4.123046417E0,-1.324745178E-1,-2.061213684E-1,9.877659302E0,9.880697789E0
4.133077417E0,-1.697470093E-1,-2.198927307E-1,9.882149963E0,9.886053548E0
4.143109417E0,-2.056723022E-1,-2.189945984E-1,9.881850586E0,9.886416476E0
4.153140417E0,-2.362088013E-1,-2.341131592E-1,9.903705139E0,9.909287515E0
4.163171417E0,-2.499801636E-1,-2.260299683E-1,9.883347473E0,9.889091814E0
4.173203417E0,-2.404000854E-1,-2.094145203E-1,9.852960663E0,9.858117491E0
4.183234417E0,-2.249821472E-1,-1.999841309E-1,9.856702881E0,9.861298206E0
4.193265417E0,-2.151026917E-1,-1.703457642E-1,9.863588562E0,9.867404226E0
4.203297417E0,-1.957928467E-1,-1.752854919E-1,9.882449341E0,9.885942788E0
4.213328417E0,-1.827699280E-1,-1.788780212E-1,9.893675995E0,9.896980695E0
4.223359417E0,-1.989363098E-1,-1.848655701E-1,9.888586578E0,9.892314969E0
4.233391417E0,-1.863624573E-1,-2.177970886E-1,9.861642609E0,9.865807695E0
4.243422417E0,-2.101629639E-1,-2.444416809E-1,9.839488678E0,9.844768034E0
4.253453417E0,-2.089654541E-1,-2.588117981E-1,9.830058289E0,9.835684829E0
4.263485417E0,-2.155517578E-1,-2.680924988E-1,9.803114319E0,9.809148102E0
4.273516417E0,-2.133064270E-1,-2.577639771E-1,9.792636108E0,9.798350058E0
4.283547417E0,-2.109114075E-1,-2.486329651E-1,9.813143463E0,9.818558275E0
4.293578417E0,-2.200424194E-1,-2.429447937E-1,9.808353424E0,9.813828903E0
4.303610417E0,-2.125579834E-1,-2.359094238E-1,9.823172607E0,9.828303731E0
4.313641417E0,-2.258802795E-1,-2.222877502E-1,9.833351440E0,9.838456906E0
4.323672417E0,-2.142045593E-1,-2.110610962E-1,9.847422180E0,9.852012686E0
4.333704417E0,-2.219883728E-1,-2.279759216E-1,9.866732025E0,9.871861664E0
4.343735417E0,-2.345622253E-1,-2.179467773E-1,9.888586578E0,9.893768986E0
4.353766417E0,-2.324665833E-1,-2.115101624E-1,9.886490936E0,9.891485242E0
4.363798417E0,-2.409988403E-1,-2.086660767E-1,9.863738251E0,9.868888197E0
4.373829417E0,-2.318678284E-1,-2.092648315E-1,9.842632141E0,9.847586604E0
4.383860417E0,-2.362088013E-1,-1.939965820E-1,9.856104126E0,9.860842652E0
4.393892417E0,-2.420466614E-1,-1.960922241E-1,9.859546967E0,9.864466794E0
4.403923417E0,-2.335144043E-1,-2.031275940E-1,9.873468018E0,9.878317695E0
4.413954417E0,-2.430944824E-1,-1.962419128E-1,9.840536499E0,9.845494625E0
4.423986417E0,-2.411485291E-1,-2.164498901E-1,9.852511597E0,9.857838908E0
4.434017417E0,-2.466870117E-1,-2.071691895E-1,9.856403503E0,9.861666369E0
4.444048417E0,-2.360591125E-1,-2.007325745E-1,9.865384827E0,9.870250009E0
4.454080417E0,-2.213896179E-1,-1.883084106E-1,9.887688446E0,9.891959170E0
4.464111417E0,-2.061213684E-1,-1.881587219E-1,9.861941986E0,9.865890201E0
4.474142417E0,-2.195933533E-1,-1.936972046E-1,9.839039612E0,9.843395772E0
4.484174417E0,-2.245330811E-1,-2.046244812E-1,9.833351440E0,9.838042836E0
4.494205417E0,-2.107617188E-1,-2.188449097E-1,9.850415955E0,9.855100612E0
4.504236417E0,-2.321672058E-1,-2.386038208E-1,9.871821442E0,9.877433471E0
4.514267417E0,-2.272274780E-1,-2.543211365E-1,9.878707123E0,9.884592353E0
4.524299417E0,-2.165995789E-1,-2.627037048E-1,9.861492920E0,9.867369012E0
4.534330417E0,-2.300715637E-1,-2.664459229E-1,9.813442841E0,9.819754923E0
4.544361417E0,-2.327659607E-1,-2.505789185E-1,9.842033386E0,9.847973952E0
4.554393417E0,-1.950444031E-1,-2.405497742E-1,9.944570160E0,9.949391046E0
4.564424417E0,-1.393601990E-1,-2.374063110E-1,1.002210892E1,1.002588900E1
4.574455417E0,-1.257385254E-1,-2.415975952E-1,9.932595062E0,9.936328509E0
4.584487417E0,-1.942959595E-1,-2.534230042E-1,9.727371826E0,9.732612023E0
4.594518417E0,-2.947370911E-1,-2.441423035E-1,9.679172058E0,9.686735629E0
4.604549417E0,-3.161425781E-1,-2.332150269E-1,9.732760620E0,9.740686047E0
4.614581417E0,-2.944377136E-1,-2.317181396E-1,9.852511597E0,9.859633443E0
4.624612417E0,-2.167492676E-1,-2.406994629E-1,9.911189575E0,9.916480992E0
4.634643417E0,-1.408570862E-1,-2.406994629E-1,9.889484711E0,9.893416235E0
4.644675417E0,-1.336720276E-1,-2.177970886E-1,9.834399261E0,9.837718873E0
4.654706417E0,-1.817221069E-1,-1.788780212E-1,9.780361633E0,9.783685090E0
4.664737417E0,-2.513273621E-1,-1.480421448E-1,9.798174591E0,9.802515353E0
4.674769417E0,-2.881507874E-1,-1.175056458E-1,9.829309845E0,9.834234616E0
4.684800417E0,-2.857557678E-1,-1.285826111E-1,9.860744476E0,9.865722045E0
4.694831417E0,-2.549198914E-1,-1.386117554E-1,9.871522064E0,9.875785803E0
4.704863417E0,-2.203417969E-1,-1.414558411E-1,9.899364166E0,9.902826423E0
4.714894417E0,-1.814227295E-1,-1.574725342E-1,9.929301910E0,9.932207621E0
4.724925417E0,-1.775308228E-1,-1.886077881E-1,9.953102417E0,9.956472157E0
4.734957417E0,-1.975891113E-1,-2.234852600E-1,9.962383118E0,9.966848273E0
4.744988417E0,-1.854643250E-1,-2.435435486E-1,9.926757202E0,9.931476176E0
4.755019417E0,-2.095642090E-1,-2.559677124E-1,9.863738251E0,9.869284113E0
4.765050417E0,-2.207908630E-1,-2.642005920E-1,9.813293152E0,9.819331599E0
4.775082417E0,-2.305206299E-1,-2.513273621E-1,9.768386536E0,9.774337866E0
4.785113417E0,-2.290237427E-1,-2.591111755E-1,9.750573578E0,9.756704135E0
4.795144417E0,-2.212399292E-1,-2.439926147E-1,9.771679688E0,9.777228821E0
4.805176417E0,-2.020797729E-1,-2.221380615E-1,9.791588287E0,9.796192257E0
4.815207417E0,-1.803749084E-1,-2.163002014E-1,9.830357666E0,9.834391325E0
4.825238417E0,-1.829196167E-1,-2.161505127E-1,9.875264282E0,9.879323118E0
4.835270417E0,-1.847158813E-1,-2.264790344E-1,9.893226929E0,9.897542714E0
4.845301417E0,-1.996847534E-1,-2.139051819E-1,9.860744476E0,9.865085456E0
4.855332417E0,-2.404000854E-1,-1.960922241E-1,9.811347198E0,9.816250721E0
4.865364417E0,-2.713856506E-1,-1.739382935E-1,9.822573853E0,9.827861506E0
4.875395417E0,-2.658471680E-1,-1.610650635E-1,9.835896149E0,9.840806355E0
4.885426417E0,-2.257305908E-1,-1.675016785E-1,9.832004242E0,9.836021479E0
4.895458417E0,-1.865121460E-1,-1.636097717E-1,9.824968872E0,9.828100950E0
4.905489417E0,-1.609153748E-1,-1.698966980E-1,9.842183075E0,9.844964516E0
4.915520417E0,-1.547781372E-1,-1.773811340E-1,9.877060547E0,9.879865656E0
4.925552417E0,-1.666035461E-1,-1.851649475E-1,9.921368408E0,9.924494642E0
4.935583417E0,-1.895059204E-1,-1.965412903E-1,9.915081482E0,9.918839739E0
4.945614417E0,-2.216889954E-1,-2.198927307E-1,9.901010742E0,9.905933199E0
4.955646417E0,-2.351609802E-1,-2.136058044E-1,9.873617706E0,9.878727384E0
4.965677417E0,-2.314187622E-1,-2.121089172E-1,9.840087433E0,9.845093475E0
4.975708417E0,-2.269281006E-1,-2.177970886E-1,9.831854553E0,9.836884461E0
4.985739417E0,-2.071691895E-1,-2.007325745E-1,9.858499146E0,9.862718593E0
4.995771417E0,-1.884580994E-1,-1.889071655E-1,9.889035645E0,9.892635056E0
5.005802417E0,-1.742376709E-1,-1.787283325E-1,9.902807007E0,9.905952211E0
5.015833417E0,-1.692979431E-1,-1.790277100E-1,9.860744476E0,9.863822502E0
5.025865417E0,-1.818717957E-1,-1.784289551E-1,9.846074982E0,9.849370883E0
5.035896417E0,-1.896556091E-1,-2.010319519E-1,9.829309845E0,9.833194553E0
5.045927417E0,-2.119592285E-1,-2.356100464E-1,9.817634125E0,9.822748018E0
5.055959417E0,-2.179467773E-1,-2.674937439E-1,9.800419922E0,9.806491949E0
5.065990417E0,-2.279759216E-1,-2.718347168E-1,9.819729767E0,9.826136567E0
5.076021417E0,-2.206411743E-1,-2.730322266E-1,9.831255798E0,9.837521014E0
5.086053417E0,-2.064207458E-1,-2.656974792E-1,9.835447083E0,9.841200333E0
5.096084417E0,-2.071691895E-1,-2.576142883E-1,9.846224670E0,9.851772655E0
5.106115417E0,-1.930984497E-1,-2.306703186E-1,9.853260040E0,9.857851147E0
5.116147417E0,-1.966909790E-1,-2.160008240E-1,9.833950195E0,9.838288476E0
5.126178417E0,-2.237846375E-1,-2.245330811E-1,9.847721558E0,9.852822669E0
5.136209417E0,-2.369572449E-1,-2.139051819E-1,9.851014709E0,9.856185620E0
5.146241417E0,-2.489323425E-1,-2.112107849E-1,9.813742218E0,9.819170720E0
5.156272417E0,-2.492317200E-1,-2.119592285E-1,9.829459534E0,9.834903044E0
5.166303417E0,-2.240840149E-1,-2.109114075E-1,9.846374359E0,9.851181923E0
5.176335417E0,-2.213896179E-1,-1.957928467E-1,9.852062531E0,9.856494524E0
5.186366417E0,-2.164498901E-1,-1.951940918E-1,9.862989807E0,9.867295436E0
5.196397417E0,-2.306703186E-1,-1.963916016E-1,9.867031403E0,9.871681070E0
5.206428417E0,-2.251318359E-1,-1.939965820E-1,9.863289185E0,9.867765327E0
5.216460417E0,-2.234852600E-1,-1.957928467E-1,9.875413971E0,9.879882671E0
5.226491417E0,-2.137554932E-1,-1.809736633E-1,9.872120819E0,9.876092970E0
5.236522417E0,-1.968406677E-1,-1.652563477E-1,9.869725800E0,9.873071623E0
5.246554417E0,-1.978884888E-1,-1.761836243E-1,9.843081207E0,9.846646545E0
5.256585417E0,-1.992356873E-1,-1.854643250E-1,9.803862762E0,9.807640743E0
5.266616417E0,-2.062710571E-1,-1.984872437E-1,9.827663269E0,9.831831481E0
5.276648417E0,-2.124082947E-1,-2.338137817E-1,9.854607239E0,9.859668858E0
5.286679417E0,-2.010319519E-1,-2.412982178E-1,9.859696655E0,9.864697502E0
5.296710417E0,-2.088157654E-1,-2.517764282E-1,9.864187317E0,9.869609253E0
5.306742417E0,-2.198927307E-1,-2.576142883E-1,9.807455292E0,9.813302056E0
5.316773417E0,-2.387535095E-1,-2.677931213E-1,9.813143463E0,9.819699640E0
5.326804417E0,-1.938468933E-1,-2.550695801E-1,9.918973389E0,9.924145817E0
5.336836417E0,-1.347198486E-1,-2.544708252E-1,1.003812561E1,1.004225426E1
5.346867417E0,-9.475296021E-2,-2.676434326E-1,9.999805298E0,1.000383512E1
5.356898417E0,-1.544787598E-1,-2.700384521E-1,9.783804474E0,9.788749381E0
5.366930417E0,-2.459385681E-1,-2.501298523E-1,9.702673187E0,9.709012190E0
5.376961417E0,-2.862048340E-1,-2.360591125E-1,9.730964355E0,9.738033908E0
5.386992417E0,-3.028202820E-1,-2.291734314E-1,9.829459534E0,9.836792938E0
5.397024417E0,-2.448907471E-1,-2.308200073E-1,9.898016968E0,9.903736126E0
5.407055417E0,-1.743873596E-1,-2.462379456E-1,9.866732025E0,9.871344637E0
5.417086417E0,-1.440005493E-1,-2.386038208E-1,9.792336731E0,9.796301679E0
5.427118417E0,-1.757345581E-1,-2.062710571E-1,9.762848053E0,9.766608034E0
5.437149417E0,-2.275268555E-1,-1.666035461E-1,9.796228638E0,9.800286768E0
5.447180417E0,-2.366578674E-1,-1.387614441E-1,9.859846344E0,9.863662181E0
5.457212417E0,-2.246827698E-1,-1.302291870E-1,9.865384827E0,9.868802347E0
5.467243417E0,-2.086660767E-1,-1.299298096E-1,9.861941986E0,9.865004968E0
5.477274417E0,-1.919009399E-1,-1.460961914E-1,9.886191559E0,9.889133107E0
5.487305417E0,-2.008822632E-1,-1.802252197E-1,9.924511871E0,9.928180634E0
5.497337417E0,-1.965412903E-1,-2.130070496E-1,9.960736542E0,9.964952229E0
5.507368417E0,-2.017803955E-1,-2.411485291E-1,9.969717865E0,9.974675045E0
5.517399417E0,-2.011816406E-1,-2.571652222E-1,9.912686462E0,9.918062356E0
5.527431417E0,-1.941462708E-1,-2.649490356E-1,9.858798523E0,9.864268806E0
5.537462417E0,-2.029779053E-1,-2.799179077E-1,9.800719299E0,9.806816652E0
5.547493417E0,-2.119592285E-1,-2.555186462E-1,9.768835602E0,9.774475204E0
5.557525417E0,-2.085163879E-1,-2.661465454E-1,9.771380310E0,9.777227942E0
5.567556417E0,-2.119592285E-1,-2.588117981E-1,9.784103851E0,9.789821165E0
5.577587417E0,-1.999841309E-1,-2.656974792E-1,9.806257782E0,9.811894847E0
5.587619417E0,-1.889071655E-1,-2.829116821E-1,9.839338989E0,9.845217960E0
5.597650417E0,-1.886077881E-1,-2.606080627E-1,9.869127045E0,9.874368744E0
5.607681417E0,-1.981878662E-1,-2.743794250E-1,9.895322571E0,9.901109598E0
5.617713417E0,-1.983375549E-1,-2.662962341E-1,9.887987823E0,9.893561273E0
5.627744417E0,-2.185455322E-1,-2.275268555E-1,9.833800507E0,9.838859844E0
5.637775417E0,-2.483335876E-1,-1.916015625E-1,9.817933502E0,9.822942481E0
5.647807417E0,-2.435435486E-1,-1.540296936E-1,9.806108093E0,9.810341204E0
5.657838417E0,-1.992356873E-1,-1.390608215E-1,9.804760895E0,9.807770846E0
5.667869417E0,-1.576222229E-1,-1.425036621E-1,9.798324280E0,9.800628079E0
5.677900083E0,-1.493893433E-1,-1.675016785E-1,9.829459534E0,9.832021598E0
5.687932083E0,-1.529818726E-1,-1.978884888E-1,9.877509613E0,9.880676063E0
5.697963083E0,-1.760339355E-1,-2.290237427E-1,9.942474518E0,9.946669762E0
5.707994083E0,-2.067201233E-1,-2.438429260E-1,9.955497437E0,9.960628584E0
5.718026083E0,-2.106120300E-1,-2.417472839E-1,9.933792572E0,9.938965441E0
5.728057083E0,-2.070195007E-1,-2.249821472E-1,9.891280975E0,9.896004920E0
5.738088083E0,-1.957928467E-1,-2.273771667E-1,9.853559418E0,9.858127024E0
5.748120083E0,-1.817221069E-1,-2.171983337E-1,9.840087433E0,9.844161657E0
5.758151083E0,-1.974394226E-1,-2.001338196E-1,9.862241364E0,9.866247543E0
5.768182083E0,-1.969903564E-1,-1.942959595E-1,9.883796539E0,9.887668590E0
5.778214083E0,-1.829196167E-1,-1.895059204E-1,9.879305878E0,9.882816233E0
5.788245083E0,-1.812730408E-1,-1.986369324E-1,9.847871246E0,9.851542246E0
5.798276083E0,-1.923500061E-1,-2.106120300E-1,9.817334747E0,9.821477358E0
5.808308083E0,-2.014810181E-1,-2.424957275E-1,9.819131012E0,9.824191194E0
5.818339083E0,-2.092648315E-1,-2.634521484E-1,9.808054047E0,9.813823057E0
5.828370083E0,-1.980381775E-1,-2.803669739E-1,9.824070740E0,9.830065649E0
5.838402083E0,-1.883084106E-1,-2.829116821E-1,9.833201752E0,9.839072912E0
5.848433083E0,-1.862127686E-1,-2.888992310E-1,9.829160156E0,9.835167886E0
5.858464083E0,-1.730401611E-1,-2.727328491E-1,9.819280701E0,9.824591573E0
5.868496083E0,-1.911524963E-1,-2.525248718E-1,9.818831635E0,9.823938251E0
5.878527083E0,-1.812730408E-1,-2.526745605E-1,9.822424164E0,9.827345562E0
5.888558083E0,-2.059716797E-1,-2.498304749E-1,9.844129028E0,9.849452570E0
5.898590083E0,-2.221380615E-1,-2.523751831E-1,9.859397278E0,9.865128141E0
5.908621083E0,-2.002835083E-1,-2.445913696E-1,9.858050079E0,9.863117651E0
5.918652083E0,-2.014810181E-1,-2.399510193E-1,9.872569885E0,9.877540546E0
5.928683083E0,-1.947450256E-1,-2.248324585E-1,9.856852570E0,9.861339556E0
5.938715083E0,-1.857637024E-1,-2.130070496E-1,9.871522064E0,9.875567225E0
5.948746083E0,-2.020797729E-1,-2.020797729E-1,9.875264282E0,9.879398621E0
5.958777083E0,-1.936972046E-1,-1.821711731E-1,9.867779846E0,9.871361813E0
5.968809083E0,-1.981878662E-1,-1.681004333E-1,9.867181091E0,9.870602761E0
5.978840083E0,-1.983375549E-1,-1.549278259E-1,9.865684204E0,9.868893820E0
5.988871083E0,-2.056723022E-1,-1.564247131E-1,9.847122803E0,9.850512539E0
5.998903083E0,-2.046244812E-1,-1.613644409E-1,9.835147705E0,9.838599496E0
6.008934083E0,-1.971400452E-1,-1.722917175E-1,9.848769379E0,9.852248825E0
6.018965083E0,-1.851649475E-1,-2.110610962E-1,9.846224670E0,9.850227059E0
6.028997083E0,-1.776805115E-1,-2.278262329E-1,9.867929535E0,9.872158247E0
6.039028083E0,-1.686991882E-1,-2.546205139E-1,9.888287201E0,9.893003325E0
6.049059083E0,-1.610650635E-1,-2.544708252E-1,9.882149963E0,9.886737847E0
6.059091083E0,-1.749861145E-1,-2.436932373E-1,9.853559418E0,9.858125569E0
6.069122083E0,-1.761836243E-1,-2.573149109E-1,9.846973114E0,9.851910025E0
6.079153083E0,-1.787283325E-1,-2.489323425E-1,9.843081207E0,9.847850465E0
6.089185083E0,-1.543290710E-1,-2.656974792E-1,9.936636658E0,9.941386255E0
6.099216083E0,-1.031355286E-1,-2.788700867E-1,9.969268799E0,9.973701712E0
6.109247083E0,-1.209484863E-1,-2.784210205E-1,9.813592529E0,9.818286262E0
6.119279083E0,-1.941462708E-1,-2.742297363E-1,9.727820892E0,9.733621835E0
6.129310083E0,-2.359094238E-1,-2.573149109E-1,9.772278442E0,9.778511654E0
6.139341083E0,-2.375559998E-1,-2.537223816E-1,9.840835876E0,9.846972055E0
6.149372083E0,-2.029779053E-1,-2.547702026E-1,9.876910858E0,9.882280910E0
6.159404083E0,-1.757345581E-1,-2.592608643E-1,9.849368134E0,9.854346831E0
6.169435083E0,-1.510359192E-1,-2.267784119E-1,9.789193268E0,9.792984485E0
6.179466083E0,-1.698966980E-1,-2.043251038E-1,9.793683929E0,9.797288326E0
6.189498083E0,-2.005828857E-1,-1.552272034E-1,9.841284943E0,9.844552722E0
6.199529083E0,-1.857637024E-1,-1.106199646E-1,9.866582336E0,9.868950903E0
6.209560083E0,-1.661544800E-1,-1.173559570E-1,9.870474243E0,9.872570158E0
6.219592083E0,-1.511856079E-1,-1.046324158E-1,9.886490936E0,9.888200446E0
6.229623083E0,-1.499880981E-1,-1.383123779E-1,9.893526306E0,9.895629819E0
6.239654083E0,-1.565744019E-1,-1.848655701E-1,9.942175140E0,9.945126311E0
6.249686083E0,-1.814227295E-1,-2.216889954E-1,9.973609772E0,9.977722791E0
6.259717083E0,-2.038760376E-1,-2.606080627E-1,9.943821716E0,9.949325220E0
6.269748083E0,-2.007325745E-1,-2.721340942E-1,9.911788330E0,9.917555063E0
6.279780083E0,-1.881587219E-1,-2.772235107E-1,9.848020935E0,9.853718735E0
6.289811083E0,-1.793270874E-1,-2.734812927E-1,9.794582062E0,9.800040203E0
6.299842083E0,-1.675016785E-1,-2.537223816E-1,9.775721283E0,9.780447764E0
6.309874083E0,-1.652563477E-1,-2.520758057E-1,9.771080933E0,9.775728846E0
6.319905083E0,-1.547781372E-1,-2.477348328E-1,9.779014435E0,9.783376316E0
6.329936083E0,-1.393601990E-1,-2.404000854E-1,9.792187042E0,9.796128855E0
6.339968083E0,-1.344204712E-1,-2.426454163E-1,9.835896149E0,9.839806843E0
6.349999083E0,-1.302291870E-1,-2.404000854E-1,9.861492920E0,9.865282279E0
6.360030083E0,-1.507365417E-1,-2.384541321E-1,9.899663544E0,9.903682151E0
6.370061083E0,-1.709445190E-1,-2.354603577E-1,9.890682220E0,9.894961263E0
6.380093083E0,-1.847158813E-1,-2.110610962E-1,9.851912842E0,9.855904494E0
6.390124083E0,-2.145039368E-1,-1.892065430E-1,9.825567627E0,9.829729917E0
6.400155083E0,-2.213896179E-1,-1.673519897E-1,9.827363892E0,9.831281763E0
6.410187083E0,-1.814227295E-1,-1.564247131E-1,9.835147705E0,9.838064509E0
6.420218083E0,-1.558259583E-1,-1.953437805E-1,9.841883698E0,9.845055390E0
6.430249083E0,-1.456471252E-1,-2.161505127E-1,9.855355682E0,9.858801639E0
6.440281083E0,-1.308279419E-1,-2.421963501E-1,9.897418213E0,9.901245493E0
6.450312083E0,-1.579216003E-1,-2.671943665E-1,9.904902649E0,9.909764303E0
6.460343083E0,-1.889071655E-1,-2.685415649E-1,9.895172882E0,9.900618509E0
6.470375083E0,-1.910028076E-1,-2.366578674E-1,9.877210236E0,9.881891067E0
6.480406083E0,-1.880090332E-1,-2.151026917E-1,9.835447083E0,9.839595311E0
6.490437083E0,-1.685494995E-1,-1.908531189E-1,9.798773346E0,9.802081051E0
6.500469083E0,-1.508862305E-1,-1.874102783E-1,9.791588287E0,9.794543913E0
6.510500083E0,-1.556762695E-1,-1.701960754E-1,9.812095642E0,9.814806299E0
6.520531083E0,-1.704954529E-1,-1.728904724E-1,9.856253815E0,9.859244346E0
6.530563083E0,-1.710942078E-1,-1.868115234E-1,9.886041870E0,9.889286912E0
6.540594083E0,-1.791773987E-1,-1.972897339E-1,9.884694672E0,9.888286835E0
6.550625083E0,-1.719923401E-1,-2.207908630E-1,9.881401520E0,9.885364230E0
6.560657083E0,-1.883084106E-1,-2.420466614E-1,9.855505371E0,9.860275491E0
6.570688083E0,-1.917512512E-1,-2.692900085E-1,9.819280701E0,9.824843975E0
6.580719083E0,-2.064207458E-1,-2.820135498E-1,9.801018677E0,9.807247742E0
6.590750083E0,-2.206411743E-1,-2.939886475E-1,9.800719299E0,9.807609833E0
6.600782083E0,-2.076182556E-1,-2.893482971E-1,9.810598755E0,9.817060441E0
6.610813083E0,-1.935475159E-1,-2.806663513E-1,9.816735992E0,9.822654417E0
6.620844083E0,-1.746867371E-1,-2.912942505E-1,9.847571869E0,9.853427805E0
6.630876083E0,-1.618135071E-1,-2.881507874E-1,9.833351440E0,9.838903142E0
6.640907083E0,-1.570234680E-1,-2.673440552E-1,9.849068756E0,9.853947665E0
6.650938083E0,-1.682501221E-1,-2.779719543E-1,9.871671753E0,9.877017754E0
6.660970083E0,-2.050735474E-1,-2.778222656E-1,9.876461792E0,9.882496542E0
6.671001083E0,-2.046244812E-1,-2.633024597E-1,9.879006500E0,9.884632962E0
6.681031708E0,-2.362088013E-1,-2.692900085E-1,9.863139496E0,9.869641960E0
6.691063708E0,-2.475851440E-1,-2.427951050E-1,9.867779846E0,9.873870921E0
6.701094708E0,-2.363584900E-1,-2.173480225E-1,9.872719574E0,9.877939931E0
6.711125708E0,-2.145039368E-1,-1.974394226E-1,9.865534515E0,9.869841211E0
6.721157708E0,-1.986369324E-1,-1.794767761E-1,9.861642609E0,9.865275642E0
6.731188708E0,-1.896556091E-1,-1.520837402E-1,9.828262024E0,9.831268134E0
6.741219708E0,-1.950444031E-1,-1.571731567E-1,9.812245331E0,9.815442127E0
6.751251708E0,-1.833686829E-1,-1.691482544E-1,9.814041595E0,9.817211806E0
6.761282708E0,-1.787283325E-1,-1.913021851E-1,9.838889923E0,9.842372441E0
6.771313708E0,-1.697470093E-1,-2.104623413E-1,9.865235138E0,9.868939800E0
6.781345708E0,-1.838177490E-1,-2.269281006E-1,9.862241364E0,9.866564247E0
6.791376708E0,-1.842668152E-1,-2.372566223E-1,9.833351440E0,9.837939089E0
6.801407708E0,-2.119592285E-1,-2.418969727E-1,9.803713074E0,9.808987251E0
6.811439708E0,-2.091151428E-1,-2.502795410E-1,9.871971130E0,9.877357085E0
6.821470708E0,-1.510359192E-1,-2.633024597E-1,1.001642075E1,1.002101914E1
6.831501708E0,-1.127156067E-1,-2.751278687E-1,1.005264542E1,1.005704132E1
6.841532708E0,-1.448986816E-1,-2.650987244E-1,9.873018951E0,9.877640213E0
6.851564708E0,-2.357597351E-1,-2.716850281E-1,9.707313538E0,9.713976092E0
6.861595708E0,-3.002755737E-1,-2.758763123E-1,9.677076416E0,9.685663690E0
6.871626708E0,-3.118016052E-1,-2.709365845E-1,9.771979065E0,9.780705584E0
6.881658708E0,-2.538720703E-1,-2.784210205E-1,9.860295410E0,9.867491823E0
6.891689708E0,-1.737886047E-1,-2.853067017E-1,9.886191559E0,9.891834306E0
6.901720708E0,-1.261875916E-1,-2.718347168E-1,9.828262024E0,9.832830306E0
6.911752708E0,-1.273851013E-1,-2.573149109E-1,9.786049805E0,9.790260911E0
6.921783708E0,-1.842668152E-1,-2.185455322E-1,9.797725525E0,9.801894810E0
6.931814708E0,-2.451901245E-1,-1.874102783E-1,9.812993774E0,9.817845366E0
6.941846708E0,-2.598596191E-1,-1.830693054E-1,9.836045837E0,9.841180778E0
6.951877708E0,-2.363584900E-1,-1.568737793E-1,9.857601013E0,9.861682030E0
6.961908708E0,-1.829196167E-1,-1.757345581E-1,9.870773621E0,9.874032312E0
6.971940708E0,-1.652563477E-1,-1.725910950E-1,9.898466034E0,9.901349765E0
6.981971708E0,-1.555265808E-1,-1.830693054E-1,9.943372650E0,9.946273802E0
6.992002708E0,-1.758842468E-1,-2.002835083E-1,9.972861328E0,9.976422797E0
7.002034708E0,-2.083666992E-1,-2.399510193E-1,9.945468292E0,9.950544343E0
7.012065708E0,-2.116598511E-1,-2.621049500E-1,9.887389069E0,9.893126982E0
7.022096708E0,-2.326162720E-1,-2.737806702E-1,9.850715332E0,9.857264262E0
7.032128708E0,-2.275268555E-1,-2.770738220E-1,9.813442841E0,9.819989753E0
7.042159708E0,-2.125579834E-1,-2.734812927E-1,9.789193268E0,9.795319175E0
7.052190708E0,-2.112107849E-1,-2.585124207E-1,9.799970856E0,9.805654871E0
7.062221708E0,-1.881587219E-1,-2.677931213E-1,9.814939728E0,9.820395039E0
7.072253708E0,-1.806742859E-1,-2.415975952E-1,9.836494904E0,9.841120088E0
7.082284708E0,-1.859133911E-1,-2.347119141E-1,9.835147705E0,9.839704460E0
7.092315708E0,-1.978884888E-1,-2.270777893E-1,9.843380585E0,9.847987892E0
7.102347708E0,-2.230361938E-1,-2.267784119E-1,9.883646851E0,9.888763758E0
7.112378708E0,-2.279759216E-1,-2.221380615E-1,9.862989807E0,9.868124760E0
7.122409708E0,-2.484832764E-1,-2.252815247E-1,9.815688171E0,9.821416903E0
7.132441708E0,-2.640509033E-1,-2.034269714E-1,9.801767120E0,9.807433104E0
7.142472708E0,-2.592608643E-1,-1.842668152E-1,9.812544708E0,9.817698514E0
7.152503708E0,-2.245330811E-1,-1.857637024E-1,9.823921051E0,9.828242370E0
7.162535708E0,-1.835183716E-1,-2.022294617E-1,9.858948212E0,9.862729622E0
7.172566708E0,-1.487905884E-1,-2.168989563E-1,9.907746735E0,9.911237519E0
7.182597708E0,-1.504371643E-1,-2.381547546E-1,9.887538757E0,9.891550521E0
7.192629708E0,-1.752854919E-1,-2.571652222E-1,9.868528290E0,9.873434537E0
7.202660708E0,-2.098635864E-1,-2.766247559E-1,9.882449341E0,9.888547363E0
7.212691708E0,-2.404000854E-1,-2.698887634E-1,9.884844360E0,9.891449852E0
7.222723708E0,-2.582130432E-1,-2.472857666E-1,9.860594788E0,9.867074226E0
7.232754708E0,-2.477348328E-1,-2.456391907E-1,9.865085449E0,9.871252306E0
7.242785708E0,-2.161505127E-1,-2.230361938E-1,9.866432648E0,9.871320042E0
7.252816708E0,-2.139051819E-1,-2.026785278E-1,9.864636383E0,9.869036680E0
7.262848708E0,-2.062710571E-1,-1.839674377E-1,9.892927551E0,9.896787726E0
7.272879708E0,-1.926493835E-1,-1.933978271E-1,9.914482727E0,9.918239977E0
7.282910708E0,-1.853146362E-1,-1.899549866E-1,9.887987823E0,9.891548292E0
7.292942708E0,-2.032772827E-1,-2.050735474E-1,9.847871246E0,9.852103577E0
7.302973708E0,-2.154020691E-1,-2.369572449E-1,9.826166382E0,9.831383044E0
7.313004708E0,-2.194436646E-1,-2.490820312E-1,9.832602997E0,9.838205074E0
7.323036708E0,-2.142045593E-1,-2.721340942E-1,9.832453308E0,9.838550636E0
7.333067708E0,-2.230361938E-1,-2.933898926E-1,9.823322296E0,9.830233146E0
7.343098708E0,-2.374063110E-1,-2.945874023E-1,9.826016693E0,9.833297898E0
7.353130708E0,-2.409988403E-1,-2.775228882E-1,9.830507355E0,9.837376390E0
7.363161708E0,-2.296224976E-1,-2.685415649E-1,9.819580078E0,9.825934763E0
7.373192708E0,-2.188449097E-1,-2.534230042E-1,9.848020935E0,9.853711618E0
7.383224708E0,-1.978884888E-1,-2.390528870E-1,9.868378601E0,9.873256927E0
7.393255708E0,-2.014810181E-1,-2.168989563E-1,9.865684204E0,9.870124851E0
7.403286708E0,-2.148033142E-1,-2.100132751E-1,9.849218445E0,9.853798761E0
7.413318708E0,-2.258802795E-1,-2.079176331E-1,9.833800507E0,9.838591568E0
7.423349708E0,-2.239343262E-1,-2.216889954E-1,9.833650818E0,9.838698135E0
7.433380708E0,-2.291734314E-1,-2.145039368E-1,9.838740234E0,9.843746330E0
7.443412708E0,-2.528242493E-1,-2.134561157E-1,9.857601013E0,9.863152708E0
7.453443708E0,-2.562670898E-1,-2.257305908E-1,9.861492920E0,9.867404407E0
7.463474708E0,-2.487826538E-1,-2.368075562E-1,9.875413971E0,9.881385112E0
7.473505708E0,-2.418969727E-1,-2.297721863E-1,9.877659302E0,9.883292098E0
7.483537708E0,-2.380050659E-1,-2.308200073E-1,9.889185333E0,9.894741575E0
7.493568708E0,-2.068698120E-1,-2.155517578E-1,9.868827667E0,9.873348834E0
7.503599708E0,-1.978884888E-1,-1.901046753E-1,9.832453308E0,9.836281701E0
7.513631708E0,-2.052232361E-1,-1.910028076E-1,9.800270233E0,9.804279438E0
7.523662708E0,-2.130070496E-1,-1.847158813E-1,9.786798248E0,9.790858589E0
7.533693708E0,-2.323168945E-1,-2.216889954E-1,9.798923035E0,9.804183280E0
7.543725708E0,-2.372566223E-1,-2.308200073E-1,9.833052063E0,9.838621929E0
7.553756708E0,-2.312690735E-1,-2.387535095E-1,9.892777863E0,9.898360595E0
7.563787708E0,-2.200424194E-1,-2.519261169E-1,9.864786072E0,9.870455394E0
7.573819708E0,-2.342628479E-1,-2.698887634E-1,9.805209961E0,9.811720614E0
7.583850708E0,-2.381547546E-1,-2.650987244E-1,9.837093658E0,9.843546448E0
7.593881708E0,-1.938468933E-1,-2.523751831E-1,9.953701172E0,9.958786918E0
7.603913708E0,-1.329235840E-1,-2.365081787E-1,1.005099884E1,1.005465974E1
7.613944708E0,-1.428030396E-1,-2.332150269E-1,9.976753235E0,9.980500341E0
7.623975708E0,-1.871109009E-1,-2.297721863E-1,9.780062256E0,9.784550244E0
7.634007708E0,-2.754272461E-1,-2.171983337E-1,9.651928711E0,9.658300219E0
7.644038708E0,-3.350033569E-1,-2.098635864E-1,9.688901825E0,9.696962852E0
7.654069708E0,-3.162922668E-1,-2.151026917E-1,9.848470001E0,9.855895258E0
7.664101708E0,-2.377056885E-1,-2.475851440E-1,9.961634674E0,9.967545725E0
7.674133917E0,-1.588197327E-1,-2.833607483E-1,9.946366425E0,9.951669311E0
7.684164917E0,-1.402583313E-1,-2.694396973E-1,9.879156189E0,9.883825027E0
7.694195917E0,-1.396595764E-1,-2.372566223E-1,9.818532257E0,9.822391317E0
7.704227917E0,-1.854643250E-1,-2.011816406E-1,9.803563385E0,9.807381206E0
7.714258917E0,-2.522254944E-1,-1.758842468E-1,9.830956421E0,9.835764186E0
7.724289917E0,-2.715353394E-1,-1.419049072E-1,9.868079224E0,9.872834244E0
7.734321917E0,-2.442919922E-1,-1.276844788E-1,9.882449341E0,9.886292878E0
7.744352917E0,-2.173480225E-1,-1.249900818E-1,9.877210236E0,9.880391932E0
7.754383917E0,-1.833686829E-1,-1.246907043E-1,9.883796539E0,9.886283724E0
7.764415917E0,-1.899549866E-1,-1.442999268E-1,9.906549225E0,9.909420917E0
7.774446917E0,-2.023791504E-1,-1.648072815E-1,9.911039886E0,9.914475800E0
7.784477917E0,-2.258802795E-1,-2.052232361E-1,9.881850586E0,9.886562066E0
7.794509917E0,-2.213896179E-1,-2.386038208E-1,9.845176849E0,9.850555941E0
7.804540917E0,-2.454895020E-1,-2.589614868E-1,9.826765137E0,9.833241541E0
7.814571917E0,-2.501298523E-1,-2.859054565E-1,9.824220428E0,9.831562129E0
7.824603917E0,-2.475851440E-1,-3.137475586E-1,9.824220428E0,9.832346768E0
7.834634917E0,-2.165995789E-1,-2.902464294E-1,9.833501129E0,9.840167825E0
7.844665917E0,-1.980381775E-1,-2.945874023E-1,9.823022919E0,9.829434374E0
7.854697917E0,-2.034269714E-1,-2.697390747E-1,9.823621674E0,9.829429510E0
7.864728917E0,-1.995350647E-1,-2.412982178E-1,9.810149689E0,9.815145235E0
7.874759917E0,-2.002835083E-1,-2.109114075E-1,9.818981323E0,9.823288214E0
7.884791917E0,-2.317181396E-1,-1.904040527E-1,9.854756927E0,9.859319505E0
7.894822917E0,-2.255809021E-1,-1.836680603E-1,9.870025177E0,9.874310998E0
7.904853917E0,-2.523751831E-1,-1.691482544E-1,9.786199493E0,9.790914405E0
7.914884917E0,-2.863545227E-1,-1.673519897E-1,9.761949921E0,9.767582703E0
7.924916917E0,-2.698887634E-1,-1.501377869E-1,9.844727783E0,9.849570875E0
7.934947917E0,-1.989363098E-1,-1.710942078E-1,9.932145996E0,9.935611354E0
7.944978917E0,-1.552272034E-1,-1.821711731E-1,9.946216736E0,9.949095897E0
7.955010917E0,-1.404080200E-1,-1.984872437E-1,9.906249847E0,9.909232949E0
7.965041917E0,-1.727407837E-1,-2.161505127E-1,9.858199768E0,9.862082087E0
7.975072917E0,-2.095642090E-1,-2.219883728E-1,9.819879456E0,9.824623581E0
7.985104917E0,-2.463876343E-1,-2.308200073E-1,9.836644592E0,9.842436770E0
7.995135917E0,-2.604583740E-1,-2.314187622E-1,9.851463776E0,9.857623026E0
8.005166917E0,-2.550695801E-1,-2.170486450E-1,9.868677979E0,9.874359506E0
8.015198917E0,-2.282752991E-1,-1.986369324E-1,9.867181091E0,9.871819940E0
8.025229917E0,-2.155517578E-1,-1.734892273E-1,9.842931519E0,9.846819890E0
8.035260917E0,-1.863624573E-1,-1.492396545E-1,9.851463776E0,9.854356497E0
8.045292917E0,-1.935475159E-1,-1.538800049E-1,9.874964905E0,9.878060112E0
8.055323917E0,-1.823208618E-1,-1.531315613E-1,9.884994049E0,9.887861120E0
8.065354917E0,-1.962419128E-1,-1.663041687E-1,9.895771637E0,9.899114317E0
8.075386917E0,-2.160008240E-1,-2.137554932E-1,9.864636383E0,9.869316022E0
8.085417917E0,-2.359094238E-1,-2.389031982E-1,9.851613464E0,9.857333100E0
8.095448917E0,-2.243833923E-1,-2.517764282E-1,9.857601013E0,9.863368441E0
8.105479917E0,-2.083666992E-1,-2.656974792E-1,9.858798523E0,9.864579066E0
8.115511917E0,-1.960922241E-1,-2.679428101E-1,9.826615448E0,9.832223384E0
8.125542917E0,-1.990859985E-1,-2.525248718E-1,9.820777588E0,9.826040732E0
8.135573917E0,-2.219883728E-1,-2.432441711E-1,9.790839844E0,9.796376443E0
8.145605917E0,-2.252815247E-1,-2.332150269E-1,9.792935486E0,9.798302223E0
8.155636917E0,-2.240840149E-1,-2.161505127E-1,9.817484436E0,9.822420035E0
8.165667917E0,-2.200424194E-1,-2.106120300E-1,9.861792297E0,9.866494991E0
8.175699917E0,-2.221380615E-1,-2.005828857E-1,9.864786072E0,9.869325360E0
8.185730917E0,-1.971400452E-1,-1.950444031E-1,9.868228912E0,9.872124816E0
8.195761917E0,-2.083666992E-1,-1.914518738E-1,9.875713348E0,9.879766426E0
8.205793917E0,-2.180964661E-1,-2.055226135E-1,9.874366150E0,9.878912515E0
8.215824917E0,-2.258802795E-1,-2.055226135E-1,9.875713348E0,9.880433978E0
8.225855917E0,-2.528242493E-1,-1.871109009E-1,9.866582336E0,9.871594481E0
8.235887917E0,-2.607577515E-1,-1.895059204E-1,9.854457550E0,9.859728227E0
8.245918917E0,-2.588117981E-1,-1.905537415E-1,9.816137238E0,9.821397281E0
8.255949917E0,-2.389031982E-1,-1.890568542E-1,9.837842102E0,9.842558329E0
8.265981917E0,-2.275268555E-1,-1.899549866E-1,9.846074982E0,9.850535209E0
8.276012917E0,-2.284249878E-1,-1.942959595E-1,9.841434631E0,9.846002463E0
8.286043917E0,-2.219883728E-1,-2.121089172E-1,9.840386810E0,9.845175550E0
8.296075917E0,-2.070195007E-1,-2.342628479E-1,9.840087433E0,9.845052404E0
8.306106917E0,-2.180964661E-1,-2.357597351E-1,9.875413971E0,9.880635092E0
8.316137917E0,-1.966909790E-1,-2.387535095E-1,9.904004517E0,9.908834242E0
8.326168917E0,-1.782792664E-1,-2.155517578E-1,9.908794556E0,9.912742083E0
8.336200917E0,-1.672023010E-1,-1.975891113E-1,9.856403503E0,9.859801625E0
8.346231917E0,-1.938468933E-1,-1.865121460E-1,9.795929260E0,9.799622109E0
8.356262917E0,-2.415975952E-1,-1.898052979E-1,9.773176575E0,9.778004695E0
8.366294917E0,-2.598596191E-1,-1.941462708E-1,9.794881439E0,9.800251130E0
8.376325917E0,-2.716850281E-1,-2.161505127E-1,9.856104126E0,9.862216908E0
8.386356917E0,-2.610571289E-1,-2.415975952E-1,9.895322571E0,9.901713438E0
8.396388917E0,-2.297721863E-1,-2.547702026E-1,9.873318329E0,9.879277197E0
8.406419917E0,-2.056723022E-1,-2.475851440E-1,9.803413696E0,9.808696121E0
8.416450917E0,-2.176473999E-1,-2.189945984E-1,9.851763153E0,9.856600136E0
8.426482917E0,-1.932481384E-1,-2.194436646E-1,9.960437164E0,9.964728239E0
8.436513917E0,-1.570234680E-1,-2.076182556E-1,1.004785538E1,1.005122676E1
8.446544917E0,-1.525328064E-1,-2.056723022E-1,9.953701172E0,9.956994244E0
8.456576917E0,-1.990859985E-1,-2.035766602E-1,9.745933228E0,9.750091957E0
8.466607917E0,-3.168910217E-1,-1.820214844E-1,9.610764313E0,9.617709832E0
8.476638917E0,-3.552113342E-1,-2.043251038E-1,9.677675171E0,9.686347121E0
8.486670917E0,-2.951861572E-1,-2.324665833E-1,9.874366150E0,9.881512154E0
8.496701917E0,-2.098635864E-1,-2.745291138E-1,9.985734558E0,9.991711746E0
8.506732917E0,-1.504371643E-1,-3.005749512E-1,9.973310394E0,9.978972736E0
8.516764917E0,-1.510359192E-1,-2.992277527E-1,9.875413971E0,9.881100657E0
8.526795917E0,-1.778302002E-1,-2.763253784E-1,9.834848328E0,9.840336423E0
8.536826917E0,-2.110610962E-1,-2.442919922E-1,9.805509338E0,9.810822532E0
8.546857917E0,-2.451901245E-1,-1.924996948E-1,9.830207977E0,9.835149374E0
8.556889917E0,-2.573149109E-1,-1.707948303E-1,9.859397278E0,9.864233195E0
8.566920917E0,-2.306703186E-1,-1.311273193E-1,9.872569885E0,9.876134837E0
8.576951917E0,-1.990859985E-1,-1.064286804E-1,9.882149963E0,9.884728130E0
8.586983917E0,-1.896556091E-1,-9.295669556E-2,9.893825684E0,9.896079873E0
8.597014917E0,-1.922003174E-1,-1.080752563E-1,9.899513855E0,9.901969288E0
8.607045917E0,-2.173480225E-1,-1.468446350E-1,9.877359924E0,9.880842200E0
8.617077917E0,-2.309696960E-1,-1.793270874E-1,9.885443115E0,9.889766973E0
8.627108917E0,-2.399510193E-1,-2.317181396E-1,9.877210236E0,9.882841283E0
8.637139917E0,-2.526745605E-1,-2.713856506E-1,9.832752686E0,9.839741866E0
8.647171917E0,-2.601589966E-1,-2.977308655E-1,9.820178833E0,9.828135056E0
8.657202917E0,-2.483335876E-1,-3.141966248E-1,9.817334747E0,9.825500019E0
8.667233917E0,-2.278262329E-1,-3.031196594E-1,9.829160156E0,9.836471710E0
8.677264833E0,-2.073188782E-1,-2.880010986E-1,9.826166382E0,9.832571968E0
8.687295833E0,-1.776805115E-1,-2.625540161E-1,9.825118561E0,9.830231926E0
8.697326833E0,-1.847158813E-1,-2.270777893E-1,9.852361908E0,9.856709362E0
8.707358833E0,-1.907034302E-1,-1.987866211E-1,9.848919067E0,9.852770713E0
8.717389833E0,-2.130070496E-1,-2.019300842E-1,9.871971130E0,9.876333417E0
8.727420833E0,-2.371069336E-1,-1.977388000E-1,9.888287201E0,9.893105887E0
8.737452833E0,-2.435435486E-1,-1.865121460E-1,9.787846069E0,9.792651884E0
8.747483833E0,-2.707868958E-1,-1.683998108E-1,9.753866730E0,9.759077837E0
8.757514833E0,-2.947370911E-1,-1.654060364E-1,9.821076965E0,9.826890753E0
8.767545833E0,-2.269281006E-1,-1.667532349E-1,9.903555450E0,9.907558406E0
8.777577833E0,-1.639091492E-1,-1.869612122E-1,9.929900665E0,9.933013034E0
8.787608833E0,-1.360670471E-1,-1.950444031E-1,9.882599030E0,9.885460037E0
8.797639833E0,-1.710942078E-1,-2.230361938E-1,9.835297394E0,9.839313655E0
8.807671833E0,-1.962419128E-1,-2.264790344E-1,9.819430389E0,9.824002077E0
8.817702833E0,-2.517764282E-1,-2.468367004E-1,9.809550934E0,9.815885556E0
8.827733833E0,-2.621049500E-1,-2.457888794E-1,9.858948212E0,9.865493957E0
8.837765833E0,-2.478845215E-1,-2.294728088E-1,9.876012726E0,9.881787888E0
8.847796833E0,-2.270777893E-1,-2.160008240E-1,9.854307861E0,9.859290243E0
8.857827833E0,-2.082170105E-1,-1.911524963E-1,9.855954437E0,9.860006667E0
8.867859833E0,-1.998344421E-1,-1.681004333E-1,9.860445099E0,9.863902327E0
8.877890833E0,-1.983375549E-1,-1.691482544E-1,9.846374359E0,9.849824208E0
8.887921833E0,-1.977388000E-1,-1.776805115E-1,9.865684204E0,9.869265211E0
8.897953833E0,-2.068698120E-1,-2.025288391E-1,9.878557434E0,9.882798694E0
8.907984833E0,-2.222877502E-1,-2.335144043E-1,9.851912842E0,9.857186590E0
8.918015833E0,-2.224374390E-1,-2.562670898E-1,9.846973114E0,9.852818416E0
8.928047833E0,-2.225871277E-1,-2.661465454E-1,9.836195526E0,9.842312810E0
8.938078833E0,-2.088157654E-1,-2.778222656E-1,9.870025177E0,9.876142275E0
8.948109833E0,-2.142045593E-1,-2.865042114E-1,9.852062531E0,9.858554882E0
8.958141833E0,-2.191442871E-1,-2.568658447E-1,9.825268250E0,9.831068124E0
8.968172833E0,-2.119592285E-1,-2.399510193E-1,9.804611206E0,9.809837109E0
8.978203833E0,-2.206411743E-1,-2.356100464E-1,9.793983307E0,9.799301181E0
8.988234833E0,-2.282752991E-1,-2.121089172E-1,9.815388794E0,9.820333853E0
8.998266833E0,-2.242337036E-1,-2.258802795E-1,9.831854553E0,9.837004961E0
9.008297833E0,-2.401007080E-1,-2.204914856E-1,9.850415955E0,9.855808405E0
9.018328833E0,-2.505789185E-1,-2.236349487E-1,9.878557434E0,9.884265241E0
9.028360833E0,-2.251318359E-1,-2.359094238E-1,9.893825684E0,9.899198162E0
9.038391833E0,-2.263293457E-1,-2.465373230E-1,9.884994049E0,9.890657864E0
9.048422833E0,-2.318678284E-1,-2.228865051E-1,9.873617706E0,9.878854574E0
9.058454833E0,-2.302212524E-1,-2.017803955E-1,9.871821442E0,9.876567001E0
9.068485833E0,-2.384541321E-1,-2.080673218E-1,9.851763153E0,9.856844810E0
9.078516833E0,-2.568658447E-1,-2.016307068E-1,9.823621674E0,9.829047654E0
9.088548833E0,-2.511776733E-1,-2.037263489E-1,9.838440857E0,9.843755033E0
9.098579833E0,-2.556683350E-1,-1.998344421E-1,9.846074982E0,9.851420844E0
9.108610833E0,-2.465373230E-1,-2.215393066E-1,9.841584320E0,9.847164173E0
9.118642833E0,-2.213896179E-1,-2.342628479E-1,9.839638367E0,9.844916233E0
9.128673833E0,-2.046244812E-1,-2.336640930E-1,9.883946228E0,9.888825164E0
9.138704833E0,-1.938468933E-1,-2.576142883E-1,9.890532532E0,9.895785744E0
9.148736833E0,-1.987866211E-1,-2.514770508E-1,9.890682220E0,9.895875485E0
9.158767833E0,-2.110610962E-1,-2.561174011E-1,9.855505371E0,9.861091675E0
9.168798833E0,-2.308200073E-1,-2.570155334E-1,9.850865021E0,9.856920235E0
9.178830833E0,-2.300715637E-1,-2.691403198E-1,9.869426422E0,9.875775784E0
9.188861833E0,-2.188449097E-1,-2.528242493E-1,9.899064789E0,9.904710843E0
9.198892833E0,-2.010319519E-1,-2.219883728E-1,9.887538757E0,9.892073360E0
9.208923833E0,-2.026785278E-1,-2.107617188E-1,9.846224670E0,9.850565433E0
9.218955833E0,-2.154020691E-1,-2.148033142E-1,9.786648560E0,9.791375212E0
9.228986833E0,-2.450404358E-1,-1.962419128E-1,9.768835602E0,9.773878694E0
9.239017833E0,-2.688409424E-1,-2.180964661E-1,9.809401245E0,9.815507848E0
9.249049833E0,-2.766247559E-1,-2.395019531E-1,9.856403503E0,9.863192813E0
9.259080833E0,-2.477348328E-1,-2.677931213E-1,9.887089691E0,9.893817679E0
9.269111833E0,-2.399510193E-1,-2.659968567E-1,9.844727783E0,9.851243370E0
9.279143833E0,-2.296224976E-1,-2.707868958E-1,9.808802490E0,9.815225842E0
9.289174833E0,-2.179467773E-1,-2.555186462E-1,9.892328796E0,9.898028066E0
9.299205833E0,-1.755848694E-1,-2.567161560E-1,1.000714005E1,1.001197209E1
9.309237833E0,-1.552272034E-1,-2.369572449E-1,1.006491989E1,1.006890543E1
9.319268833E0,-1.558259583E-1,-2.362088013E-1,9.890682220E0,9.894729461E0
9.329299833E0,-2.549198914E-1,-2.201921082E-1,9.660161591E0,9.666032830E0
9.339331833E0,-3.570075989E-1,-2.124082947E-1,9.595196686E0,9.604185085E0
9.349362833E0,-3.701802063E-1,-2.059716797E-1,9.729168091E0,9.738386389E0
9.359393833E0,-2.950364685E-1,-2.354603577E-1,9.905351715E0,9.912541586E0
9.369425833E0,-2.107617188E-1,-2.712359619E-1,9.977052612E0,9.982963902E0
9.379456833E0,-1.408570862E-1,-3.126997375E-1,9.942175140E0,9.948088679E0
9.389487833E0,-1.231938171E-1,-3.112028503E-1,9.854457550E0,9.860139834E0
9.399519833E0,-1.445993042E-1,-2.730322266E-1,9.809550934E0,9.814415167E0
9.409550833E0,-2.227368164E-1,-2.537223816E-1,9.810449066E0,9.816256803E0
9.419581833E0,-2.725831604E-1,-2.137554932E-1,9.852212219E0,9.858299985E0
9.429612833E0,-2.643502808E-1,-1.806742859E-1,9.852960663E0,9.858162004E0
9.439644833E0,-2.459385681E-1,-1.624122620E-1,9.843530273E0,9.847941499E0
9.449675833E0,-2.228865051E-1,-1.402583313E-1,9.837991791E0,9.841515801E0
9.459706833E0,-2.174977112E-1,-1.456471252E-1,9.855056305E0,9.858531996E0
9.469738833E0,-2.157014465E-1,-1.630110168E-1,9.858948212E0,9.862654792E0
9.479769833E0,-2.145039368E-1,-1.848655701E-1,9.889634399E0,9.893687673E0
9.489800833E0,-2.157014465E-1,-2.267784119E-1,9.893526306E0,9.898475556E0
9.499832833E0,-2.121089172E-1,-2.649490356E-1,9.881551208E0,9.887377937E0
9.509863833E0,-2.356100464E-1,-2.965333557E-1,9.861792297E0,9.869062339E0
9.519894833E0,-2.508782959E-1,-3.192860413E-1,9.846823425E0,9.855192290E0
9.529926833E0,-2.510279846E-1,-3.189866638E-1,9.825567627E0,9.833948685E0
9.539957833E0,-2.559677124E-1,-3.174897766E-1,9.826465759E0,9.834924939E0
9.549988833E0,-2.281256104E-1,-3.161425781E-1,9.822124786E0,9.829858735E0
9.560020833E0,-2.031275940E-1,-2.809657288E-1,9.816436615E0,9.822557222E0
9.570051833E0,-2.137554932E-1,-2.609074402E-1,9.826615448E0,9.832402314E0
9.580082833E0,-1.929487610E-1,-2.338137817E-1,9.850266266E0,9.854929914E0
9.590114833E0,-2.026785278E-1,-2.257305908E-1,9.894274750E0,9.898924472E0
9.600145833E0,-2.038760376E-1,-2.113604736E-1,9.839189301E0,9.843570733E0
9.610176833E0,-2.389031982E-1,-2.067201233E-1,9.762398987E0,9.767509505E0
9.620208833E0,-2.737806702E-1,-1.722917175E-1,9.760303345E0,9.765662378E0
9.630239833E0,-2.763253784E-1,-1.755848694E-1,9.824669495E0,9.830122911E0
9.640270833E0,-2.351609802E-1,-1.981878662E-1,9.898466034E0,9.903242345E0
9.650301833E0,-1.703457642E-1,-2.204914856E-1,9.935888214E0,9.939794202E0
9.660333833E0,-1.610650635E-1,-2.371069336E-1,9.904004517E0,9.908151549E0
9.670364833E0,-1.790277100E-1,-2.489323425E-1,9.845925293E0,9.850698610E0
9.680396042E0,-2.076182556E-1,-2.707868958E-1,9.837991791E0,9.843907423E0
9.690428042E0,-2.493814087E-1,-2.818638611E-1,9.876611481E0,9.883779270E0
9.700459042E0,-2.444416809E-1,-2.766247559E-1,9.870025177E0,9.876926141E0
9.710490042E0,-2.350112915E-1,-2.603086853E-1,9.872719574E0,9.878946437E0
9.720522042E0,-2.363584900E-1,-2.363584900E-1,9.850715332E0,9.856384896E0
9.730553042E0,-2.233355713E-1,-2.133064270E-1,9.848470001E0,9.853311107E0
9.740584042E0,-2.186952209E-1,-1.826202393E-1,9.847122803E0,9.851243842E0
9.750616042E0,-2.118095398E-1,-2.040257263E-1,9.877210236E0,9.881587515E0
9.760647042E0,-2.160008240E-1,-2.469863892E-1,9.889784088E0,9.895225512E0
9.770678042E0,-2.007325745E-1,-2.607577515E-1,9.866133270E0,9.871619618E0
9.780710042E0,-2.160008240E-1,-2.760260010E-1,9.870474243E0,9.876695221E0
9.790741042E0,-2.209405518E-1,-2.893482971E-1,9.857900391E0,9.864620483E0
9.800772042E0,-2.218386841E-1,-2.977308655E-1,9.866881714E0,9.873865040E0
9.810804042E0,-2.115101624E-1,-2.968327332E-1,9.850116577E0,9.856857654E0
9.820835042E0,-2.225871277E-1,-3.065625000E-1,9.830507355E0,9.837804656E0
9.830866042E0,-2.384541321E-1,-2.865042114E-1,9.809251556E0,9.816331348E0
9.840898042E0,-2.393522644E-1,-2.721340942E-1,9.812993774E0,9.819683971E0
9.850929042E0,-2.454895020E-1,-2.547702026E-1,9.821376343E0,9.827746752E0
9.860960042E0,-2.412982178E-1,-2.365081787E-1,9.842033386E0,9.847831341E0
9.870991042E0,-2.383044434E-1,-2.360591125E-1,9.872869263E0,9.878565705E0
9.881023042E0,-2.317181396E-1,-2.447410583E-1,9.889035645E0,9.894777282E0
9.891054042E0,-2.305206299E-1,-2.219883728E-1,9.893077240E0,9.898252163E0
9.901085042E0,-2.371069336E-1,-2.174977112E-1,9.886490936E0,9.891725228E0
9.911117042E0,-2.498304749E-1,-2.285746765E-1,9.849817200E0,9.855635977E0
9.921148042E0,-2.586621094E-1,-2.305206299E-1,9.828262024E0,9.834367303E0
9.931179042E0,-2.595602417E-1,-2.192939758E-1,9.830207977E0,9.836079008E0
9.941211042E0,-2.567161560E-1,-2.315684509E-1,9.824819183E0,9.830900219E0
9.951242042E0,-2.537223816E-1,-2.496807861E-1,9.841284943E0,9.847720795E0
9.961273042E0,-2.447410583E-1,-2.597099304E-1,9.833800507E0,9.840273362E0
9.971305042E0,-2.320175171E-1,-2.513273621E-1,9.843829651E0,9.849770544E0
9.981336042E0,-2.022294617E-1,-2.633024597E-1,9.857451324E0,9.863040685E0
9.991367042E0,-2.043251038E-1,-2.670446777E-1,9.860295410E0,9.866026920E0
1.000139904E1,-2.121089172E-1,-2.698887634E-1,9.862091675E0,9.868063758E0
1.001143004E1,-2.002835083E-1,-2.586621094E-1,9.862690430E0,9.868114414E0
1.002146104E1,-2.062710571E-1,-2.695893860E-1,9.871522064E0,9.877356633E0
1.003149304E1,-2.200424194E-1,-2.857557678E-1,9.845027161E0,9.851631074E0
1.004152404E1,-2.347119141E-1,-2.689906311E-1,9.826615448E0,9.833098027E0
1.005155504E1,-2.294728088E-1,-2.725831604E-1,9.809850311E0,9.816319192E0
1.006158704E1,-2.555186462E-1,-2.665956116E-1,9.827064514E0,9.834000202E0
1.007161804E1,-2.332150269E-1,-2.577639771E-1,9.866582336E0,9.872703709E0
1.008164904E1,-2.266287231E-1,-2.420466614E-1,9.894723816E0,9.900278105E0
1.009168104E1,-2.290237427E-1,-2.297721863E-1,9.845625916E0,9.850969333E0
1.010171204E1,-2.360591125E-1,-2.154020691E-1,9.790091400E0,9.795305589E0
1.011174304E1,-2.544708252E-1,-2.261796570E-1,9.787696381E0,9.793615935E0
1.012177404E1,-2.733316040E-1,-2.323168945E-1,9.809101868E0,9.815658957E0
1.013180604E1,-2.601589966E-1,-2.435435486E-1,9.849068756E0,9.855513763E0
1.014183704E1,-2.324665833E-1,-2.716850281E-1,9.891430664E0,9.897891394E0
1.015186804E1,-2.209405518E-1,-2.639012146E-1,9.875264282E0,9.881260204E0
1.016190004E1,-2.321672058E-1,-2.525248718E-1,9.805808716E0,9.811806918E0
1.017193104E1,-2.368075562E-1,-2.573149109E-1,9.860445099E0,9.866644127E0
1.018196204E1,-2.031275940E-1,-2.378553772E-1,9.971813507E0,9.976717928E0
1.019199404E1,-1.731898499E-1,-2.362088013E-1,1.007614655E1,1.008040270E1
1.020202504E1,-1.621128845E-1,-2.468367004E-1,9.983040161E0,9.987407061E0
1.021205604E1,-2.230361938E-1,-2.451901245E-1,9.710606689E0,9.716261916E0
1.022208804E1,-3.353027344E-1,-2.338137817E-1,9.589209137E0,9.597917935E0
1.023211904E1,-3.769161987E-1,-2.402503967E-1,9.665101318E0,9.675431234E0
1.024215004E1,-3.197351074E-1,-2.309696960E-1,9.840686188E0,9.848587827E0
1.025218204E1,-2.171983337E-1,-2.821632385E-1,9.970466309E0,9.976822621E0
1.026221304E1,-1.291813660E-1,-3.082090759E-1,9.967472534E0,9.973073216E0
1.027224404E1,-9.190887451E-2,-3.144960022E-1,9.860744476E0,9.866186528E0
1.028227604E1,-1.213975525E-1,-2.957849121E-1,9.801318054E0,9.806531583E0
1.029230704E1,-2.124082947E-1,-2.731819153E-1,9.812694397E0,9.818794069E0
1.030233804E1,-2.662962341E-1,-2.176473999E-1,9.833650818E0,9.839663230E0
1.031237004E1,-2.972817993E-1,-1.942959595E-1,9.867480469E0,9.873869464E0
1.032240104E1,-2.639012146E-1,-1.737886047E-1,9.868378601E0,9.873436208E0
1.033243204E1,-2.338137817E-1,-1.513352966E-1,9.859996033E0,9.863928884E0
1.034246304E1,-2.079176331E-1,-1.396595764E-1,9.871671753E0,9.874848745E0
1.035249504E1,-2.167492676E-1,-1.513352966E-1,9.870174866E0,9.873714321E0
1.036252604E1,-2.260299683E-1,-1.791773987E-1,9.886490936E0,9.890697504E0
1.037255704E1,-2.421963501E-1,-2.234852600E-1,9.887838135E0,9.893328445E0
1.038258904E1,-2.438429260E-1,-2.532733154E-1,9.885143738E0,9.891393909E0
1.039262004E1,-2.386038208E-1,-2.971321106E-1,9.856852570E0,9.864216231E0
1.040265104E1,-2.466870117E-1,-3.076103210E-1,9.834099884E0,9.842001784E0
1.041268304E1,-2.550695801E-1,-3.153941345E-1,9.831405487E0,9.839769703E0
1.042271404E1,-2.508782959E-1,-3.061134338E-1,9.816885681E0,9.824860805E0
1.043274504E1,-2.418969727E-1,-2.935395813E-1,9.824968872E0,9.832328970E0
1.044277704E1,-2.152523804E-1,-2.835104370E-1,9.847871246E0,9.854302605E0
1.045280804E1,-2.146536255E-1,-2.570155334E-1,9.860445099E0,9.866129470E0
1.046283904E1,-2.179467773E-1,-2.378553772E-1,9.878557434E0,9.883823802E0
1.047287104E1,-2.163002014E-1,-2.252815247E-1,9.912686462E0,9.917605076E0
1.048290204E1,-2.170486450E-1,-2.330653381E-1,9.850715332E0,9.855862322E0
1.049293304E1,-2.435435486E-1,-2.088157654E-1,9.778715057E0,9.783975964E0
1.050296504E1,-2.948867798E-1,-1.719923401E-1,9.783056030E0,9.789010413E0
1.051299604E1,-2.803669739E-1,-1.669029236E-1,9.788295135E0,9.793731867E0
1.052302704E1,-2.486329651E-1,-1.737886047E-1,9.835896149E0,9.840572843E0
1.053305904E1,-1.601669312E-1,-2.002835083E-1,9.897867279E0,9.901188999E0
1.054309004E1,-1.378633118E-1,-2.191442871E-1,9.898765411E0,9.902150634E0
1.055312104E1,-1.567240906E-1,-2.426454163E-1,9.866732025E0,9.870959431E0
1.056315204E1,-1.932481384E-1,-2.603086853E-1,9.863139496E0,9.868466252E0
1.057318404E1,-2.356100464E-1,-2.511776733E-1,9.868528290E0,9.874535580E0
1.058321504E1,-2.516267395E-1,-2.579136658E-1,9.854756927E0,9.861342179E0
1.059324604E1,-2.727328491E-1,-2.532733154E-1,9.837991791E0,9.845029866E0
1.060327804E1,-2.624043274E-1,-2.424957275E-1,9.856253815E0,9.862727790E0
1.061330904E1,-2.275268555E-1,-2.140548706E-1,9.862241364E0,9.867187678E0
1.062334004E1,-2.167492676E-1,-2.137554932E-1,9.885443115E0,9.890129283E0
1.063337204E1,-2.056723022E-1,-2.028282166E-1,9.900711365E0,9.904924326E0
1.064340304E1,-1.978884888E-1,-2.106120300E-1,9.917925568E0,9.922135095E0
1.065343404E1,-1.963916016E-1,-2.224374390E-1,9.891131287E0,9.895581145E0
1.066346604E1,-1.983375549E-1,-2.451901245E-1,9.879156189E0,9.884188535E0
1.067349704E1,-2.330653381E-1,-2.639012146E-1,9.870324554E0,9.876602154E0
1.068352821E1,-2.481838989E-1,-2.760260010E-1,9.858499146E0,9.865484834E0
1.069356021E1,-2.389031982E-1,-2.877017212E-1,9.841284943E0,9.848387500E0
1.070359121E1,-2.421963501E-1,-2.866539001E-1,9.820927277E0,9.828094531E0
1.071362221E1,-2.487826538E-1,-2.845582581E-1,9.811047821E0,9.818326006E0
1.072365421E1,-2.323168945E-1,-2.522254944E-1,9.799821167E0,9.805818872E0
1.073368521E1,-2.260299683E-1,-2.441423035E-1,9.814340973E0,9.819978806E0
1.074371621E1,-2.113604736E-1,-2.302212524E-1,9.838889923E0,9.843852396E0
1.075374821E1,-2.254312134E-1,-2.192939758E-1,9.851912842E0,9.856931354E0
1.076377921E1,-2.348616028E-1,-2.131567383E-1,9.858798523E0,9.863899030E0
1.077381021E1,-2.333647156E-1,-2.163002014E-1,9.863139496E0,9.868270648E0
1.078384121E1,-2.359094238E-1,-2.059716797E-1,9.852810974E0,9.857786855E0
1.079387321E1,-2.483335876E-1,-2.137554932E-1,9.852062531E0,9.857509680E0
1.080390421E1,-2.412982178E-1,-1.977388000E-1,9.860894165E0,9.865827852E0
1.081393521E1,-2.290237427E-1,-2.014810181E-1,9.845775604E0,9.850499669E0
1.082396721E1,-2.350112915E-1,-2.001338196E-1,9.844877472E0,9.849715544E0
1.083399821E1,-2.396516418E-1,-1.899549866E-1,9.838590546E0,9.843341899E0
1.084402921E1,-2.179467773E-1,-1.920506287E-1,9.819729767E0,9.824025495E0
1.085406121E1,-2.151026917E-1,-2.089654541E-1,9.852361908E0,9.856925022E0
1.086409221E1,-2.106120300E-1,-1.953437805E-1,9.828411713E0,9.832608678E0
1.087412321E1,-2.113604736E-1,-2.188449097E-1,9.833501129E0,9.838206686E0
1.088415521E1,-1.911524963E-1,-2.294728088E-1,9.865235138E0,9.869754879E0
1.089418621E1,-2.022294617E-1,-2.378553772E-1,9.854607239E0,9.859551499E0
1.090421721E1,-2.149530029E-1,-2.481838989E-1,9.832752686E0,9.838232840E0
1.091424921E1,-2.435435486E-1,-2.471360779E-1,9.826465759E0,9.832589640E0
1.092428021E1,-2.374063110E-1,-2.453398132E-1,9.845925293E0,9.851842379E0
1.093431121E1,-2.233355713E-1,-2.305206299E-1,9.874815216E0,9.880030065E0
1.094434321E1,-2.089654541E-1,-2.097138977E-1,9.869276733E0,9.873716105E0
1.095437421E1,-2.008822632E-1,-1.890568542E-1,9.855056305E0,9.858916317E0
1.096440521E1,-2.134561157E-1,-1.847158813E-1,9.823172607E0,9.827227663E0
1.097443721E1,-2.212399292E-1,-1.716929626E-1,9.811047821E0,9.815043807E0
1.098446821E1,-2.284249878E-1,-1.772314453E-1,9.831255798E0,9.835506064E0
1.099449921E1,-2.353106689E-1,-2.097138977E-1,9.865684204E0,9.870718102E0
1.100453121E1,-2.151026917E-1,-2.287243652E-1,9.876761169E0,9.881750614E0
1.101456221E1,-2.148033142E-1,-2.381547546E-1,9.859846344E0,9.865060977E0
1.102459321E1,-2.278262329E-1,-2.365081787E-1,9.819580078E0,9.825069660E0
1.103462421E1,-2.233355713E-1,-2.183958435E-1,9.830657043E0,9.835618609E0
1.104465621E1,-1.926493835E-1,-2.034269714E-1,9.925110626E0,9.929064269E0
1.105468721E1,-1.571731567E-1,-1.890568542E-1,1.002630020E1,1.002931412E1
1.106471821E1,-1.281335449E-1,-2.013313293E-1,9.987979889E0,9.990830535E0
1.107475021E1,-1.811233521E-1,-2.163002014E-1,9.774823151E0,9.778893550E0
1.108478121E1,-2.609074402E-1,-2.287243652E-1,9.671238556E0,9.677460552E0
1.109481221E1,-3.204835510E-1,-2.302212524E-1,9.731263733E0,9.739261028E0
1.110484421E1,-2.980302429E-1,-2.240840149E-1,9.823771362E0,9.830845307E0
1.111487521E1,-2.359094238E-1,-2.386038208E-1,9.913285217E0,9.918962085E0
1.112490621E1,-1.520837402E-1,-2.580633545E-1,9.915979614E0,9.920502904E0
1.113493821E1,-9.250762939E-2,-2.353106689E-1,9.840686188E0,9.843933839E0
1.114496921E1,-1.407073975E-1,-2.010319519E-1,9.782756653E0,9.785833646E0
1.115500021E1,-1.862127686E-1,-1.592687988E-1,9.780810699E0,9.783879582E0
1.116503221E1,-2.308200073E-1,-1.306782532E-1,9.815538483E0,9.819121671E0
1.117506321E1,-2.622546387E-1,-1.152603149E-1,9.837093658E0,9.841263846E0
1.118509421E1,-2.538720703E-1,-1.264869690E-1,9.855954437E0,9.860034881E0
1.119512621E1,-2.127076721E-1,-1.212478638E-1,9.855954437E0,9.858995054E0
1.120515721E1,-2.040257263E-1,-1.413061523E-1,9.874366150E0,9.877484537E0
1.121518821E1,-1.874102783E-1,-1.706451416E-1,9.900112610E0,9.903356606E0
1.122522021E1,-1.788780212E-1,-1.959425354E-1,9.952204285E0,9.955740100E0
1.123525121E1,-1.868115234E-1,-2.097138977E-1,9.942025452E0,9.945991582E0
1.124528221E1,-2.085163879E-1,-2.347119141E-1,9.901160431E0,9.906136817E0
1.125531321E1,-2.228865051E-1,-2.412982178E-1,9.846973114E0,9.852450595E0
1.126534521E1,-2.203417969E-1,-2.609074402E-1,9.804311829E0,9.810257572E0
1.127537621E1,-2.207908630E-1,-2.480342102E-1,9.771529999E0,9.777170761E0
1.128540721E1,-2.064207458E-1,-2.401007080E-1,9.763596497E0,9.768729417E0
1.129543921E1,-2.122586060E-1,-2.357597351E-1,9.773625641E0,9.778772650E0
1.130547021E1,-1.948947144E-1,-2.228865051E-1,9.819280701E0,9.823743473E0
1.131550121E1,-1.692979431E-1,-2.275268555E-1,9.841584320E0,9.845669718E0
1.132553321E1,-1.841171265E-1,-2.189945984E-1,9.881700897E0,9.885841915E0
1.133556421E1,-1.995350647E-1,-2.031275940E-1,9.888885956E0,9.892984409E0
1.134559521E1,-2.080673218E-1,-1.929487610E-1,9.856403503E0,9.860487374E0
1.135562721E1,-2.368075562E-1,-1.814227295E-1,9.833650818E0,9.838174649E0
1.136565821E1,-2.646496582E-1,-1.471440125E-1,9.829609222E0,9.834272127E0
1.137568921E1,-2.424957275E-1,-1.392105103E-1,9.839937744E0,9.843909719E0
1.138572121E1,-1.966909790E-1,-1.573228455E-1,9.836045837E0,9.839270071E0
1.139575221E1,-1.622625732E-1,-1.724414062E-1,9.847871246E0,9.850717399E0
1.140578321E1,-1.529818726E-1,-1.992356873E-1,9.873767395E0,9.876962128E0
1.141581521E1,-1.642085266E-1,-1.954934692E-1,9.909692688E0,9.912980950E0
1.142584621E1,-1.841171265E-1,-2.062710571E-1,9.928104401E0,9.931953678E0
1.143587721E1,-2.092648315E-1,-2.258802795E-1,9.908794556E0,9.913577720E0
1.144590821E1,-2.112107849E-1,-2.204914856E-1,9.875863037E0,9.880581826E0
1.145594021E1,-2.122586060E-1,-2.279759216E-1,9.840386810E0,9.845315603E0
1.146597121E1,-2.131567383E-1,-2.163002014E-1,9.829609222E0,9.834299113E0
1.147600321E1,-1.936972046E-1,-2.106120300E-1,9.846973114E0,9.851129658E0
1.148603421E1,-1.887574768E-1,-1.898052979E-1,9.859696655E0,9.863329741E0
1.149606521E1,-1.809736633E-1,-1.818717957E-1,9.882748718E0,9.886078649E0
1.150609621E1,-1.689985657E-1,-1.704954529E-1,9.885742493E0,9.888656827E0
1.151612821E1,-1.588197327E-1,-1.660047913E-1,9.863887939E0,9.866563058E0
1.152615921E1,-1.847158813E-1,-2.160008240E-1,9.858349457E0,9.862445454E0
1.153619021E1,-2.005828857E-1,-2.216889954E-1,9.835596771E0,9.840139397E0
1.154622221E1,-2.074685669E-1,-2.393522644E-1,9.813293152E0,9.818403903E0
1.155625321E1,-2.273771667E-1,-2.606080627E-1,9.812245331E0,9.818338728E0
1.156628421E1,-2.107617188E-1,-2.737806702E-1,9.812245331E0,9.818326476E0
1.157631621E1,-2.100132751E-1,-2.812651062E-1,9.822424164E0,9.828694323E0
1.158634721E1,-1.978884888E-1,-2.642005920E-1,9.842033386E0,9.847567364E0
1.159637821E1,-2.037263489E-1,-2.552192688E-1,9.856553192E0,9.861961373E0
1.160641021E1,-2.038760376E-1,-2.613565063E-1,9.872869263E0,9.878432069E0
1.161644121E1,-2.082170105E-1,-2.366578674E-1,9.843979340E0,9.849024851E0
1.162647221E1,-2.311193848E-1,-2.323168945E-1,9.858948212E0,9.864392893E0
1.163650421E1,-2.372566223E-1,-2.339634705E-1,9.859097900E0,9.864727113E0
1.164653521E1,-2.306703186E-1,-2.285746765E-1,9.839937744E0,9.845294815E0
1.165656621E1,-2.254312134E-1,-2.168989563E-1,9.836943970E0,9.841917042E0
1.166659821E1,-2.112107849E-1,-2.192939758E-1,9.824070740E0,9.828787603E0
1.167662892E1,-2.031275940E-1,-1.956431580E-1,9.851763153E0,9.855799018E0
1.168665992E1,-1.923500061E-1,-1.787283325E-1,9.880054321E0,9.883542671E0
1.169669192E1,-2.038760376E-1,-1.755848694E-1,9.880353699E0,9.884016628E0
1.170672292E1,-2.163002014E-1,-1.966909790E-1,9.845326538E0,9.849666378E0
1.171675392E1,-2.442919922E-1,-1.984872437E-1,9.847422180E0,9.852451439E0
1.172678492E1,-2.427951050E-1,-2.151026917E-1,9.862540741E0,9.867873555E0
1.173681692E1,-2.255809021E-1,-2.206411743E-1,9.873318329E0,9.878359383E0
1.174684792E1,-2.109114075E-1,-2.252815247E-1,9.877509613E0,9.882329257E0
1.175687892E1,-1.880090332E-1,-2.248324585E-1,9.865833893E0,9.870186190E0
1.176691092E1,-1.887574768E-1,-2.201921082E-1,9.829010468E0,9.833288398E0
1.177694192E1,-1.580712891E-1,-2.122586060E-1,9.823322296E0,9.826886647E0
1.178697292E1,-1.672023010E-1,-2.050735474E-1,9.844578094E0,9.848133307E0
1.179700492E1,-1.782792664E-1,-2.174977112E-1,9.859546967E0,9.863556921E0
1.180703592E1,-1.941462708E-1,-2.408491516E-1,9.872420197E0,9.877265898E0
1.181706692E1,-2.080673218E-1,-2.600093079E-1,9.857750702E0,9.863373954E0
1.182709892E1,-2.216889954E-1,-2.616558838E-1,9.832303619E0,9.838282588E0
1.183712992E1,-2.365081787E-1,-2.619552612E-1,9.827812958E0,9.834147864E0
1.184716092E1,-2.237846375E-1,-2.649490356E-1,9.876910858E0,9.882997807E0
1.185719292E1,-1.619631958E-1,-2.742297363E-1,9.997410278E0,1.000248201E1
1.186722392E1,-1.125659180E-1,-2.673440552E-1,1.000504440E1,1.000924860E1
1.187725492E1,-1.362167358E-1,-2.686912537E-1,9.804760895E0,9.809387656E0
1.188728692E1,-2.254312134E-1,-2.466870117E-1,9.707313538E0,9.713063875E0
1.189731792E1,-2.793191528E-1,-2.315684509E-1,9.730066223E0,9.736828634E0
1.190734892E1,-2.815644836E-1,-2.192939758E-1,9.814191284E0,9.820678132E0
1.191738092E1,-2.369572449E-1,-2.439926147E-1,9.889634399E0,9.895481276E0
1.192741192E1,-1.815724182E-1,-2.484832764E-1,9.878407745E0,9.883200497E0
1.193744292E1,-1.604663086E-1,-2.393522644E-1,9.804311829E0,9.808545732E0
1.194747392E1,-1.841171265E-1,-2.249821472E-1,9.777068481E0,9.781389685E0
1.195750592E1,-2.333647156E-1,-1.838177490E-1,9.805209961E0,9.809708988E0
1.196753692E1,-2.573149109E-1,-1.640588379E-1,9.858948212E0,9.863670012E0
1.197756792E1,-2.309696960E-1,-1.495390320E-1,9.871522064E0,9.875356033E0
1.198759992E1,-1.944456482E-1,-1.369651794E-1,9.865684204E0,9.868550724E0
1.199763092E1,-1.763333130E-1,-1.462458801E-1,9.862540741E0,9.865201020E0
1.200766192E1,-1.546284485E-1,-1.661544800E-1,9.906249847E0,9.908849747E0
1.201769392E1,-1.761836243E-1,-1.945953369E-1,9.937085724E0,9.940552334E0
1.202772492E1,-1.945953369E-1,-2.207908630E-1,9.941576385E0,9.945931680E0
1.203775592E1,-2.218386841E-1,-2.580633545E-1,9.911488953E0,9.917329396E0
1.204778792E1,-2.261796570E-1,-2.766247559E-1,9.853110352E0,9.859587319E0
1.205781892E1,-2.040257263E-1,-2.914439392E-1,9.808353424E0,9.814803256E0
1.206784992E1,-1.996847534E-1,-2.872526550E-1,9.768985291E0,9.775247398E0
1.207788192E1,-1.999841309E-1,-2.775228882E-1,9.791887665E0,9.797860820E0
1.208791292E1,-1.914518738E-1,-2.712359619E-1,9.815538483E0,9.821151586E0
1.209794392E1,-1.862127686E-1,-2.709365845E-1,9.838440857E0,9.843932158E0
1.210797592E1,-1.890568542E-1,-2.811154175E-1,9.856104126E0,9.861924605E0
1.211800692E1,-1.836680603E-1,-2.719844055E-1,9.853858795E0,9.859322625E0
1.212803792E1,-1.975891113E-1,-2.911445618E-1,9.874964905E0,9.881231628E0
1.213806992E1,-2.239343262E-1,-2.719844055E-1,9.873468018E0,9.879751656E0
1.214810092E1,-2.356100464E-1,-2.562670898E-1,9.827064514E0,9.833228457E0
1.215813192E1,-2.606080627E-1,-2.182461548E-1,9.825118561E0,9.830997034E0
1.216816392E1,-2.570155334E-1,-1.767823792E-1,9.821825409E0,9.826777873E0
1.217819492E1,-2.263293457E-1,-1.624122620E-1,9.839338989E0,9.843281692E0
1.218822592E1,-1.761836243E-1,-1.655557251E-1,9.841284943E0,9.844254095E0
1.219825692E1,-1.793270874E-1,-1.728904724E-1,9.835596771E0,9.838750590E0
1.220828892E1,-1.853146362E-1,-2.019300842E-1,9.869127045E0,9.872931981E0
1.221831992E1,-1.856140137E-1,-2.404000854E-1,9.929451599E0,9.934095521E0
1.222835092E1,-2.109114075E-1,-2.457888794E-1,9.947264557E0,9.952535755E0
1.223838292E1,-2.252815247E-1,-2.642005920E-1,9.934241638E0,9.940307372E0
1.224841392E1,-2.203417969E-1,-2.604583740E-1,9.910141754E0,9.916012236E0
1.225844492E1,-2.116598511E-1,-2.555186462E-1,9.879455566E0,9.885025643E0
1.226847692E1,-2.052232361E-1,-2.459385681E-1,9.848320312E0,9.853528065E0
1.227850792E1,-2.059716797E-1,-2.324665833E-1,9.861043854E0,9.865933860E0
1.228853892E1,-2.168989563E-1,-2.216889954E-1,9.859696655E0,9.864573448E0
1.229857092E1,-1.917512512E-1,-2.155517578E-1,9.856104126E0,9.860325534E0
1.230860192E1,-2.034269714E-1,-2.383044434E-1,9.838141479E0,9.843129549E0
1.231863292E1,-2.110610962E-1,-2.568658447E-1,9.808054047E0,9.813686923E0
1.232866492E1,-2.094145203E-1,-2.507286072E-1,9.793234863E0,9.798681971E0
1.233869592E1,-2.160008240E-1,-2.770738220E-1,9.781559143E0,9.787866240E0
1.234872692E1,-2.143542480E-1,-2.999761963E-1,9.806557159E0,9.813485455E0
1.235875892E1,-2.001338196E-1,-2.944377136E-1,9.807904358E0,9.814363709E0
1.236878992E1,-2.124082947E-1,-2.815644836E-1,9.825268250E0,9.831596616E0
1.237882092E1,-1.971400452E-1,-2.637515259E-1,9.839039612E0,9.844548215E0
1.238885292E1,-2.106120300E-1,-2.573149109E-1,9.820478210E0,9.826106079E0
1.239888392E1,-2.164498901E-1,-2.553689575E-1,9.819580078E0,9.825284564E0
1.240891492E1,-2.383044434E-1,-2.604583740E-1,9.829160156E0,9.835497799E0
1.241894692E1,-2.704875183E-1,-2.680924988E-1,9.858798523E0,9.866151499E0
1.242897792E1,-2.522254944E-1,-2.582130432E-1,9.848769379E0,9.855381776E0
1.243900892E1,-2.456391907E-1,-2.546205139E-1,9.858349457E0,9.864695851E0
1.244903992E1,-2.255809021E-1,-2.314187622E-1,9.856253815E0,9.861550621E0
1.245907192E1,-1.929487610E-1,-2.240840149E-1,9.862540741E0,9.866972825E0
1.246910292E1,-1.865121460E-1,-2.064207458E-1,9.888137512E0,9.892050332E0
1.247913392E1,-2.050735474E-1,-2.179467773E-1,9.860744476E0,9.865284465E0
1.248916592E1,-2.281256104E-1,-2.221380615E-1,9.852062531E0,9.857206639E0
1.249919692E1,-2.523751831E-1,-2.436932373E-1,9.823621674E0,9.829884151E0
1.250922792E1,-2.662962341E-1,-2.474354553E-1,9.834099884E0,9.840815948E0
1.251925992E1,-2.555186462E-1,-2.571652222E-1,9.858798523E0,9.865461573E0
1.252929092E1,-2.233355713E-1,-2.320175171E-1,9.869725800E0,9.874978393E0
1.253932192E1,-1.911524963E-1,-2.115101624E-1,9.855505371E0,9.859627881E0
1.254935392E1,-1.863624573E-1,-1.954934692E-1,9.826615448E0,9.830326537E0
1.255938492E1,-1.865121460E-1,-2.032772827E-1,9.819131012E0,9.823005765E0
1.256941592E1,-1.908531189E-1,-2.088157654E-1,9.837542725E0,9.841609411E0
1.257944792E1,-2.130070496E-1,-2.329156494E-1,9.854008484E0,9.859062070E0
1.258947892E1,-2.189945984E-1,-2.561174011E-1,9.868378601E0,9.874130391E0
1.259950992E1,-2.239343262E-1,-2.661465454E-1,9.839039612E0,9.845185679E0
1.260954192E1,-2.475851440E-1,-2.677931213E-1,9.786049805E0,9.792843425E0
1.261957292E1,-2.567161560E-1,-2.646496582E-1,9.831854553E0,9.838765501E0
1.262960392E1,-2.059716797E-1,-2.662962341E-1,9.959389343E0,9.965077727E0
1.263963592E1,-1.212478638E-1,-2.715353394E-1,1.005548950E1,1.005988577E1
1.264966692E1,-1.047821045E-1,-2.689906311E-1,9.935439148E0,9.939632101E0
1.265969792E1,-1.827699280E-1,-2.644999695E-1,9.740993500E0,9.746297730E0
1.266972992E1,-2.796185303E-1,-2.501298523E-1,9.687255249E0,9.694517302E0
1.267976142E1,-3.129991150E-1,-2.495310974E-1,9.754914551E0,9.763124096E0
1.268979242E1,-2.942880249E-1,-2.609074402E-1,9.887089691E0,9.894908827E0
1.269982342E1,-2.386038208E-1,-2.698887634E-1,9.937684479E0,9.944211609E0
1.270985542E1,-1.689985657E-1,-2.835104370E-1,9.880952454E0,9.886463477E0
1.271988642E1,-1.487905884E-1,-2.606080627E-1,9.802665253E0,9.807257581E0
1.272991742E1,-2.022294617E-1,-2.318678284E-1,9.756261749E0,9.761111759E0
1.273994942E1,-2.520758057E-1,-1.907034302E-1,9.790390778E0,9.795491901E0
1.274998042E1,-2.924917603E-1,-1.468446350E-1,9.841434631E0,9.846875158E0
1.276001142E1,-2.520758057E-1,-1.384620667E-1,9.858948212E0,9.863142187E0
1.277004342E1,-2.258802795E-1,-1.347198486E-1,9.879754944E0,9.883254985E0
1.278007442E1,-1.865121460E-1,-1.384620667E-1,9.919422455E0,9.922141924E0
1.279010542E1,-1.645079041E-1,-1.637594604E-1,9.943372650E0,9.946081624E0
1.280013742E1,-1.872605896E-1,-1.922003174E-1,9.958042145E0,9.961657033E0
1.281016842E1,-2.082170105E-1,-2.107617188E-1,9.954000549E0,9.958408596E0
1.282019942E1,-2.089654541E-1,-2.664459229E-1,9.906249847E0,9.912035413E0
1.283023142E1,-2.165995789E-1,-2.888992310E-1,9.841135254E0,9.847757167E0
1.284026242E1,-2.275268555E-1,-2.881507874E-1,9.788893890E0,9.795776791E0
1.285029342E1,-2.299218750E-1,-2.993774414E-1,9.772877197E0,9.780164602E0
1.286032542E1,-2.291734314E-1,-2.929408264E-1,9.773026886E0,9.780101702E0
1.287035642E1,-2.195933533E-1,-2.817141724E-1,9.784552917E0,9.791070417E0
1.288038742E1,-2.142045593E-1,-2.755769348E-1,9.792336731E0,9.798555245E0
1.289041942E1,-1.971400452E-1,-2.769241333E-1,9.829908600E0,9.835784374E0
1.290045042E1,-1.996847534E-1,-2.571652222E-1,9.849817200E0,9.855196945E0
1.291048142E1,-2.213896179E-1,-2.499801636E-1,9.886490936E0,9.892128511E0
1.292051242E1,-2.377056885E-1,-2.260299683E-1,9.902208252E0,9.907639568E0
1.293054442E1,-2.601589966E-1,-2.104623413E-1,9.847422180E0,9.853106145E0
1.294057542E1,-2.703378296E-1,-1.987866211E-1,9.795031128E0,9.800777187E0
1.295060642E1,-2.818638611E-1,-1.643582153E-1,9.797426147E0,9.802857745E0
1.296063842E1,-2.644999695E-1,-1.514849854E-1,9.810299377E0,9.815033459E0
1.297066942E1,-2.029779053E-1,-1.615141296E-1,9.797276459E0,9.800709814E0
1.298070042E1,-1.859133911E-1,-1.878593445E-1,9.841883698E0,9.845431917E0
1.299073242E1,-1.675016785E-1,-2.171983337E-1,9.884544983E0,9.888349784E0
1.300076342E1,-1.621128845E-1,-2.252815247E-1,9.892927551E0,9.896820090E0
1.301079442E1,-1.977388000E-1,-2.532733154E-1,9.906100159E0,9.911310123E0
1.302082642E1,-2.215393066E-1,-2.652484131E-1,9.915081482E0,9.921102619E0
1.303085742E1,-2.426454163E-1,-2.552192688E-1,9.900112610E0,9.906373875E0
1.304088842E1,-2.418969727E-1,-2.450404358E-1,9.872719574E0,9.878722121E0
1.305092042E1,-2.401007080E-1,-2.200424194E-1,9.847272491E0,9.852656623E0
1.306095142E1,-2.142045593E-1,-2.079176331E-1,9.860894165E0,9.865411652E0
1.307098242E1,-2.055226135E-1,-1.939965820E-1,9.880952454E0,9.884993455E0
1.308101442E1,-1.974394226E-1,-1.917512512E-1,9.899663544E0,9.903488736E0
1.309104542E1,-1.990859985E-1,-1.922003174E-1,9.893376617E0,9.897245935E0
1.310107642E1,-1.868115234E-1,-1.945953369E-1,9.882299652E0,9.885980594E0
1.311110842E1,-1.983375549E-1,-2.092648315E-1,9.851014709E0,9.855233146E0
1.312113942E1,-2.314187622E-1,-2.380050659E-1,9.827363892E0,9.832969140E0
1.313117042E1,-2.366578674E-1,-2.805166626E-1,9.795330505E0,9.802203643E0
1.314120242E1,-2.483335876E-1,-2.814147949E-1,9.813442841E0,9.820617305E0
1.315123342E1,-2.444416809E-1,-2.986289978E-1,9.818232880E0,9.825814363E0
1.316126442E1,-2.321672058E-1,-2.894979858E-1,9.811347198E0,9.818362620E0
1.317129642E1,-2.040257263E-1,-2.815644836E-1,9.821975098E0,9.828127994E0
1.318132742E1,-2.130070496E-1,-2.538720703E-1,9.833501129E0,9.839083671E0
1.319135842E1,-1.956431580E-1,-2.324665833E-1,9.849966888E0,9.854651930E0
1.320138942E1,-1.986369324E-1,-2.404000854E-1,9.887987823E0,9.892904125E0
1.321142142E1,-2.213896179E-1,-2.165995789E-1,9.890532532E0,9.895380867E0
1.322145242E1,-2.389031982E-1,-2.143542480E-1,9.861492920E0,9.866715010E0
1.323148342E1,-2.555186462E-1,-2.062710571E-1,9.849667511E0,9.855140162E0
1.324151542E1,-2.597099304E-1,-1.938468933E-1,9.840536499E0,9.845871442E0
1.325154642E1,-2.604583740E-1,-2.095642090E-1,9.838291168E0,9.843969160E0
1.326157742E1,-2.538720703E-1,-2.059716797E-1,9.860894165E0,9.866311828E0
1.327160942E1,-2.448907471E-1,-2.237846375E-1,9.869725800E0,9.875299408E0
1.328164042E1,-2.318678284E-1,-2.282752991E-1,9.850565643E0,9.855938098E0
1.329167142E1,-2.424957275E-1,-2.369572449E-1,9.854906616E0,9.860737159E0
1.330170342E1,-2.363584900E-1,-2.374063110E-1,9.860145721E0,9.865835025E0
1.331173442E1,-2.167492676E-1,-2.203417969E-1,9.912237396E0,9.917055054E0
1.332176542E1,-1.960922241E-1,-2.127076721E-1,9.878557434E0,9.882792808E0
1.333179742E1,-1.975891113E-1,-1.919009399E-1,9.848769379E0,9.852620245E0
1.334182842E1,-2.136058044E-1,-1.930984497E-1,9.795629883E0,9.799861185E0
1.335185942E1,-2.381547546E-1,-1.905537415E-1,9.772428131E0,9.777186712E0
1.336189142E1,-2.538720703E-1,-2.076182556E-1,9.782457275E0,9.787953142E0
1.337192242E1,-2.541714478E-1,-2.315684509E-1,9.829758911E0,9.835770805E0
1.338195342E1,-2.511776733E-1,-2.600093079E-1,9.883646851E0,9.890256323E0
1.339198542E1,-2.320175171E-1,-2.634521484E-1,9.869875488E0,9.876116712E0
1.340201642E1,-2.260299683E-1,-2.543211365E-1,9.806557159E0,9.812458005E0
1.341204742E1,-2.173480225E-1,-2.535726929E-1,9.833950195E0,9.839619694E0
1.342207942E1,-1.821711731E-1,-2.252815247E-1,9.952353973E0,9.956570078E0
1.343211042E1,-1.393601990E-1,-2.311193848E-1,1.004710693E1,1.005073108E1
1.344214142E1,-1.348695374E-1,-2.386038208E-1,9.957892456E0,9.961663704E0
1.345217242E1,-2.082170105E-1,-2.281256104E-1,9.748927002E0,9.753818396E0
1.346220442E1,-3.032693481E-1,-2.008822632E-1,9.620643768E0,9.627518502E0
1.347223542E1,-3.397933960E-1,-2.079176331E-1,9.683063965E0,9.691254668E0
1.348226642E1,-3.076103210E-1,-2.270777893E-1,9.839638367E0,9.847064112E0
1.349229842E1,-2.357597351E-1,-2.450404358E-1,9.967023468E0,9.972822283E0
1.350232942E1,-1.483415222E-1,-2.830613708E-1,9.968370667E0,9.973492001E0
1.351236042E1,-1.260379028E-1,-2.728825378E-1,9.870324554E0,9.874900366E0
1.352239242E1,-1.547781372E-1,-2.492317200E-1,9.827513580E0,9.831891776E0
1.353242342E1,-2.122586060E-1,-1.977388000E-1,9.829010468E0,9.833290452E0
1.354245442E1,-2.649490356E-1,-1.546284485E-1,9.838740234E0,9.843521593E0
1.355248642E1,-2.784210205E-1,-1.333726501E-1,9.847721558E0,9.852559383E0
1.356251742E1,-2.489323425E-1,-1.246907043E-1,9.857301636E0,9.861232713E0
1.357254842E1,-2.104623413E-1,-1.077758789E-1,9.882149963E0,9.884978398E0
1.358258042E1,-1.959425354E-1,-1.062789917E-1,9.893675995E0,9.896186811E0
1.359261142E1,-1.740879822E-1,-1.586700439E-1,9.904303894E0,9.907104442E0
1.360264242E1,-1.889071655E-1,-1.839674377E-1,9.915530548E0,9.919036041E0
1.361267442E1,-2.067201233E-1,-1.960922241E-1,9.886790314E0,9.890895211E0
1.362270542E1,-2.254312134E-1,-2.308200073E-1,9.856104126E0,9.861383557E0
1.363273642E1,-2.170486450E-1,-2.531236267E-1,9.826016693E0,9.831672581E0
1.364276842E1,-2.311193848E-1,-2.790197754E-1,9.808353424E0,9.815042796E0
1.365279942E1,-2.308200073E-1,-2.791694641E-1,9.816436615E0,9.823117697E0
1.366283042E1,-2.317181396E-1,-2.850073242E-1,9.818232880E0,9.825101493E0
1.367286242E1,-2.163002014E-1,-2.707868958E-1,9.819729767E0,9.825843679E0
1.368289304E1,-1.956431580E-1,-2.588117981E-1,9.842931519E0,9.848277041E0
1.369292404E1,-1.945953369E-1,-2.324665833E-1,9.861043854E0,9.865702912E0
1.370295604E1,-2.040257263E-1,-2.086660767E-1,9.883197784E0,9.887505574E0
1.371298704E1,-2.119592285E-1,-1.805245972E-1,9.898316345E0,9.902231179E0
1.372301804E1,-2.278262329E-1,-1.716929626E-1,9.872719574E0,9.876840337E0
1.373304904E1,-2.526745605E-1,-1.725910950E-1,9.778116302E0,9.782902971E0
1.374308104E1,-3.088078308E-1,-1.507365417E-1,9.787247314E0,9.793277989E0
1.375311204E1,-2.722837830E-1,-1.564247131E-1,9.786049805E0,9.791086657E0
1.376314304E1,-2.323168945E-1,-1.573228455E-1,9.855505371E0,9.859498351E0
1.377317504E1,-1.694476318E-1,-1.645079041E-1,9.920919342E0,9.923729941E0
1.378320604E1,-1.428030396E-1,-1.779798889E-1,9.906998291E0,9.909625860E0
1.379323704E1,-1.615141296E-1,-1.972897339E-1,9.865384827E0,9.868679133E0
1.380326904E1,-1.824705505E-1,-2.294728088E-1,9.854607239E0,9.858967345E0
1.381330004E1,-2.085163879E-1,-2.320175171E-1,9.865235138E0,9.870165933E0
1.382333104E1,-2.378553772E-1,-2.347119141E-1,9.877509613E0,9.883160477E0
1.383336304E1,-2.498304749E-1,-2.261796570E-1,9.864337006E0,9.870092049E0
1.384339404E1,-2.535726929E-1,-1.950444031E-1,9.858648834E0,9.863837908E0
1.385342504E1,-2.330653381E-1,-1.793270874E-1,9.859996033E0,9.864380336E0
1.386345704E1,-2.062710571E-1,-1.456471252E-1,9.851014709E0,9.854250435E0
1.387348804E1,-1.944456482E-1,-1.594184875E-1,9.881251831E0,9.884450471E0
1.388351904E1,-2.007325745E-1,-1.631607056E-1,9.886041870E0,9.889425607E0
1.389355104E1,-1.881587219E-1,-1.802252197E-1,9.890831909E0,9.894263019E0
1.390358204E1,-1.908531189E-1,-2.145039368E-1,9.856553192E0,9.860734135E0
1.391361304E1,-2.225871277E-1,-2.305206299E-1,9.833201752E0,9.838421697E0
1.392364504E1,-2.137554932E-1,-2.564167786E-1,9.832752686E0,9.838417878E0
1.393367604E1,-2.279759216E-1,-2.571652222E-1,9.835896149E0,9.841898192E0
1.394370704E1,-2.218386841E-1,-2.547702026E-1,9.832902374E0,9.838703642E0
1.395373904E1,-2.237846375E-1,-2.412982178E-1,9.814490662E0,9.820006687E0
1.396377004E1,-2.243833923E-1,-2.398013306E-1,9.795629883E0,9.801133475E0
1.397380104E1,-2.225871277E-1,-2.195933533E-1,9.812395020E0,9.817375530E0
1.398383304E1,-2.246827698E-1,-2.074685669E-1,9.823771362E0,9.828530375E0
1.399386404E1,-2.163002014E-1,-2.022294617E-1,9.853559418E0,9.858007696E0
1.400389504E1,-2.203417969E-1,-2.029779053E-1,9.874815216E0,9.879358587E0
1.401392704E1,-2.261796570E-1,-2.005828857E-1,9.870623932E0,9.875252277E0
1.402395804E1,-2.305206299E-1,-2.068698120E-1,9.864786072E0,9.869647366E0
1.403398904E1,-2.454895020E-1,-1.910028076E-1,9.846524048E0,9.851435580E0
1.404402004E1,-2.308200073E-1,-1.962419128E-1,9.871971130E0,9.876618995E0
1.405405204E1,-2.318678284E-1,-1.977388000E-1,9.867630157E0,9.872334488E0
1.406408304E1,-2.329156494E-1,-1.904040527E-1,9.842183075E0,9.846779732E0
1.407411404E1,-2.269281006E-1,-1.919009399E-1,9.841883698E0,9.846369740E0
1.408414604E1,-2.191442871E-1,-1.892065430E-1,9.859696655E0,9.863946546E0
1.409417704E1,-2.118095398E-1,-2.176473999E-1,9.858499146E0,9.863175912E0
1.410420804E1,-2.155517578E-1,-2.155517578E-1,9.837093658E0,9.841815725E0
1.411424004E1,-2.362088013E-1,-2.154020691E-1,9.829459534E0,9.834656444E0
1.412427104E1,-2.493814087E-1,-2.357597351E-1,9.859247589E0,9.865218536E0
1.413430204E1,-2.240840149E-1,-2.233355713E-1,9.872120819E0,9.877188967E0
1.414433404E1,-2.044747925E-1,-2.142045593E-1,9.882898407E0,9.887334042E0
1.415436504E1,-1.748364258E-1,-1.980381775E-1,9.866732025E0,9.870267866E0
1.416439604E1,-1.833686829E-1,-1.657054138E-1,9.810748444E0,9.813860982E0
1.417442804E1,-2.152523804E-1,-1.685494995E-1,9.777068481E0,9.780890073E0
1.418445904E1,-2.546205139E-1,-1.856140137E-1,9.794282684E0,9.799349849E0
1.419449004E1,-2.670446777E-1,-2.110610962E-1,9.844578094E0,9.850460776E0
1.420452204E1,-2.474354553E-1,-2.348616028E-1,9.879904633E0,9.885792827E0
1.421455304E1,-2.257305908E-1,-2.380050659E-1,9.871971130E0,9.877419436E0
1.422458404E1,-2.421963501E-1,-2.460882568E-1,9.817783813E0,9.823853496E0
1.423461604E1,-2.252815247E-1,-2.389031982E-1,9.871222687E0,9.876682836E0
1.424464704E1,-1.863624573E-1,-2.335144043E-1,9.977501678E0,9.981973737E0
1.425467804E1,-1.508862305E-1,-2.145039368E-1,1.009291168E1,1.009631838E1
1.426471004E1,-1.350192261E-1,-1.968406677E-1,9.935139771E0,9.938006777E0
1.427474104E1,-2.246827698E-1,-1.911524963E-1,9.688153381E0,9.692643477E0
1.428477204E1,-3.191363525E-1,-1.796264648E-1,9.610614624E0,9.617589466E0
1.429480404E1,-3.384461975E-1,-1.657054138E-1,9.729467468E0,9.736762364E0
1.430483504E1,-2.767744446E-1,-1.927990723E-1,9.898615723E0,9.904361100E0
1.431486604E1,-1.957928467E-1,-2.377056885E-1,1.000100281E1,1.000574315E1
1.432489704E1,-1.357676697E-1,-2.859054565E-1,9.951605530E0,9.956637355E0
1.433492904E1,-1.353186035E-1,-2.556683350E-1,9.856253815E0,9.860497791E0
1.434496004E1,-1.845661926E-1,-2.435435486E-1,9.797725525E0,9.802489663E0
1.435499104E1,-2.498304749E-1,-1.983375549E-1,9.796078949E0,9.801271133E0
1.436502304E1,-2.851570129E-1,-1.528321838E-1,9.845476227E0,9.850790543E0
1.437505404E1,-2.622546387E-1,-1.411564636E-1,9.853559418E0,9.858059436E0
1.438508504E1,-2.251318359E-1,-1.191522217E-1,9.861043854E0,9.864333099E0
1.439511704E1,-1.821711731E-1,-1.038839722E-1,9.866133270E0,9.868361765E0
1.440514804E1,-1.853146362E-1,-9.160949707E-2,9.890682220E0,9.892842291E0
1.441517904E1,-1.851649475E-1,-1.019380188E-1,9.892179108E0,9.894437069E0
1.442521104E1,-1.960922241E-1,-1.728904724E-1,9.900262299E0,9.903713286E0
1.443524204E1,-2.227368164E-1,-2.049238586E-1,9.891131287E0,9.895760891E0
1.444527304E1,-2.368075562E-1,-2.462379456E-1,9.851763153E0,9.857684727E0
1.445530504E1,-2.411485291E-1,-2.736309814E-1,9.853260040E0,9.860008111E0
1.446533604E1,-2.453398132E-1,-2.760260010E-1,9.823621674E0,9.830560755E0
1.447536704E1,-2.466870117E-1,-2.571652222E-1,9.831854553E0,9.838310444E0
1.448539904E1,-2.372566223E-1,-2.656974792E-1,9.828561401E0,9.835014239E0
1.449543004E1,-2.094145203E-1,-2.335144043E-1,9.807155914E0,9.812170532E0
1.450546104E1,-1.966909790E-1,-2.082170105E-1,9.818382568E0,9.822559642E0
1.451549304E1,-1.874102783E-1,-2.023791504E-1,9.839638367E0,9.843503600E0
1.452552404E1,-1.892065430E-1,-1.913021851E-1,9.870623932E0,9.874290478E0
1.453555504E1,-2.041754150E-1,-1.948947144E-1,9.880503387E0,9.884534321E0
1.454558704E1,-2.249821472E-1,-1.938468933E-1,9.843380585E0,9.847859408E0
1.455561804E1,-2.655477905E-1,-1.917512512E-1,9.792636108E0,9.798112375E0
1.456564904E1,-2.932402039E-1,-1.667532349E-1,9.808802490E0,9.814601507E0
1.457568104E1,-2.510279846E-1,-1.453477478E-1,9.849068756E0,9.853339352E0
1.458571204E1,-2.052232361E-1,-1.386117554E-1,9.901160431E0,9.904257048E0
1.459574304E1,-1.463955688E-1,-1.535806274E-1,9.915081482E0,9.917351434E0
1.460577404E1,-1.351689148E-1,-1.760339355E-1,9.884694672E0,9.887186017E0
1.461580604E1,-1.773811340E-1,-2.077679443E-1,9.850565643E0,9.854353103E0
1.462583704E1,-2.107617188E-1,-2.170486450E-1,9.853858795E0,9.858502106E0
1.463586804E1,-2.421963501E-1,-2.185455322E-1,9.869875488E0,9.875265231E0
1.464590004E1,-2.601589966E-1,-2.254312134E-1,9.871671753E0,9.877672050E0
1.465593104E1,-2.487826538E-1,-2.306703186E-1,9.862540741E0,9.868374307E0
1.466596204E1,-2.145039368E-1,-2.071691895E-1,9.861492920E0,9.866000893E0
1.467599404E1,-2.118095398E-1,-1.681004333E-1,9.871072998E0,9.874776107E0
1.468602579E1,-1.874102783E-1,-1.666035461E-1,9.879904633E0,9.883086305E0
1.469605679E1,-1.917512512E-1,-1.681004333E-1,9.882299652E0,9.885589143E0
1.470608879E1,-1.895059204E-1,-1.510359192E-1,9.870623932E0,9.873598186E0
1.471611979E1,-1.945953369E-1,-1.781295776E-1,9.866881714E0,9.870407907E0
1.472615079E1,-2.245330811E-1,-2.088157654E-1,9.832004242E0,9.836784360E0
1.473618279E1,-2.309696960E-1,-2.380050659E-1,9.820777588E0,9.826376028E0
1.474621379E1,-2.427951050E-1,-2.619552612E-1,9.817035370E0,9.823530601E0
1.475624479E1,-2.335144043E-1,-2.694396973E-1,9.818532257E0,9.825003939E0
1.476627679E1,-2.276765442E-1,-2.616558838E-1,9.833351440E0,9.839466498E0
1.477630779E1,-2.146536255E-1,-2.501298523E-1,9.830806732E0,9.836330725E0
1.478633879E1,-2.165995789E-1,-2.465373230E-1,9.825867004E0,9.831345707E0
1.479637079E1,-2.192939758E-1,-2.309696960E-1,9.838740234E0,9.843893856E0
1.480640179E1,-2.356100464E-1,-2.113604736E-1,9.828561401E0,9.833656724E0
1.481643279E1,-2.375559998E-1,-2.185455322E-1,9.854307861E0,9.859593218E0
1.482646479E1,-2.332150269E-1,-2.059716797E-1,9.853559418E0,9.858470813E0
1.483649579E1,-2.409988403E-1,-2.044747925E-1,9.851314087E0,9.856382684E0
1.484652679E1,-2.360591125E-1,-1.930984497E-1,9.842183075E0,9.846907057E0
1.485655879E1,-2.398013306E-1,-1.919009399E-1,9.852511597E0,9.857297571E0
1.486658979E1,-2.396516418E-1,-1.935475159E-1,9.842183075E0,9.847002652E0
1.487662079E1,-2.284249878E-1,-1.763333130E-1,9.854307861E0,9.858532083E0
1.488665179E1,-2.312690735E-1,-1.746867371E-1,9.859397278E0,9.863656296E0
1.489668379E1,-2.209405518E-1,-1.872605896E-1,9.872420197E0,9.876667545E0
1.490671479E1,-2.174977112E-1,-1.829196167E-1,9.872719574E0,9.876809031E0
1.491674579E1,-2.101629639E-1,-1.904040527E-1,9.873018951E0,9.877090938E0
1.492677779E1,-2.212399292E-1,-2.031275940E-1,9.870474243E0,9.875042770E0
1.493680879E1,-2.182461548E-1,-2.180964661E-1,9.837393036E0,9.842230397E0
1.494683979E1,-2.318678284E-1,-2.377056885E-1,9.820178833E0,9.825791520E0
1.495687179E1,-2.317181396E-1,-2.492317200E-1,9.839638367E0,9.845521466E0
1.496690279E1,-2.194436646E-1,-2.296224976E-1,9.876312103E0,9.881418055E0
1.497693379E1,-2.007325745E-1,-2.125579834E-1,9.897418213E0,9.901735290E0
1.498696579E1,-1.942959595E-1,-2.171983337E-1,9.881551208E0,9.885847476E0
1.499699679E1,-1.883084106E-1,-1.930984497E-1,9.836943970E0,9.840640921E0
1.500702779E1,-2.011816406E-1,-1.877096558E-1,9.795779572E0,9.799643176E0
1.501705979E1,-2.318678284E-1,-1.844165039E-1,9.798473969E0,9.802951813E0
1.502709079E1,-2.507286072E-1,-1.995350647E-1,9.839788055E0,9.845004218E0
1.503712179E1,-2.471360779E-1,-2.158511353E-1,9.855205994E0,9.860666972E0
1.504715379E1,-2.303709412E-1,-2.418969727E-1,9.858349457E0,9.864007245E0
1.505718479E1,-2.306703186E-1,-2.451901245E-1,9.831106110E0,9.836868116E0
1.506721579E1,-2.478845215E-1,-2.426454163E-1,9.787397003E0,9.793541935E0
1.507724779E1,-2.312690735E-1,-2.115101624E-1,9.880802765E0,9.885771857E0
1.508727879E1,-1.835183716E-1,-1.995350647E-1,1.000459534E1,1.000826764E1
1.509730979E1,-1.305285645E-1,-2.201921082E-1,1.006267456E1,1.006592974E1
1.510734179E1,-1.534309387E-1,-2.264790344E-1,9.864337006E0,9.868129426E0
1.511737279E1,-2.483335876E-1,-2.194436646E-1,9.699679413E0,9.705339036E0
1.512740379E1,-3.189866638E-1,-2.062710571E-1,9.687854004E0,9.695298626E0
1.513743579E1,-3.263214111E-1,-2.237846375E-1,9.795031128E0,9.803019944E0
1.514746679E1,-2.791694641E-1,-2.417472839E-1,9.902208252E0,9.909092068E0
1.515749779E1,-1.895059204E-1,-2.552192688E-1,9.953701172E0,9.958775848E0
1.516752879E1,-1.122665405E-1,-2.395019531E-1,9.870623932E0,9.874167396E0
1.517756079E1,-1.194515991E-1,-2.056723022E-1,9.808353424E0,9.811236755E0
1.518759179E1,-1.749861145E-1,-1.688488770E-1,9.780960388E0,9.783982635E0
1.519762279E1,-2.486329651E-1,-1.442999268E-1,9.805359650E0,9.809572808E0
1.520765479E1,-2.721340942E-1,-1.193019104E-1,9.838740234E0,9.843226062E0
1.521768579E1,-2.631527710E-1,-1.178050232E-1,9.853260040E0,9.857477407E0
1.522771679E1,-2.471360779E-1,-1.309776306E-1,9.873018951E0,9.876980034E0
1.523774879E1,-2.041754150E-1,-1.520837402E-1,9.900861053E0,9.904133817E0
1.524777979E1,-1.927990723E-1,-1.678010559E-1,9.936486969E0,9.939773738E0
1.525781079E1,-2.014810181E-1,-1.948947144E-1,9.959688721E0,9.963632769E0
1.526784279E1,-1.992356873E-1,-2.195933533E-1,9.939480743E0,9.943902330E0
1.527787379E1,-1.957928467E-1,-2.399510193E-1,9.901609497E0,9.906451532E0
1.528790479E1,-2.002835083E-1,-2.562670898E-1,9.838889923E0,9.844264382E0
1.529793679E1,-2.002835083E-1,-2.535726929E-1,9.797725525E0,9.803052487E0
1.530796779E1,-2.272274780E-1,-2.415975952E-1,9.761500854E0,9.767133697E0
1.531799879E1,-2.417472839E-1,-2.439926147E-1,9.750872955E0,9.756920495E0
1.532803079E1,-2.192939758E-1,-2.399510193E-1,9.761500854E0,9.766911757E0
1.533806179E1,-2.103126526E-1,-2.426454163E-1,9.824070740E0,9.829317072E0
1.534809279E1,-2.017803955E-1,-2.386038208E-1,9.854607239E0,9.859560383E0
1.535812479E1,-1.910028076E-1,-2.303709412E-1,9.881401520E0,9.885931865E0
1.536815579E1,-1.886077881E-1,-2.248324585E-1,9.894274750E0,9.898625933E0
1.537818679E1,-1.963916016E-1,-2.130070496E-1,9.879006500E0,9.883254074E0
1.538821879E1,-2.451901245E-1,-1.790277100E-1,9.826765137E0,9.831453716E0
1.539824979E1,-2.652484131E-1,-1.496887207E-1,9.808353424E0,9.813081082E0
1.540828079E1,-2.595602417E-1,-1.435514832E-1,9.838141479E0,9.842611763E0
1.541831279E1,-2.034269714E-1,-1.447489929E-1,9.811047821E0,9.814224073E0
1.542834379E1,-1.730401611E-1,-1.561253357E-1,9.822873230E0,9.825637715E0
1.543837479E1,-1.716929626E-1,-1.926493835E-1,9.833201752E0,9.836587261E0
1.544840679E1,-1.661544800E-1,-1.954934692E-1,9.872120819E0,9.875454140E0
1.545843779E1,-1.892065430E-1,-2.119592285E-1,9.906998291E0,9.911071636E0
1.546846879E1,-2.083666992E-1,-2.145039368E-1,9.923763428E0,9.928268187E0
1.547850079E1,-2.353106689E-1,-2.207908630E-1,9.909393311E0,9.914645505E0
1.548853179E1,-2.305206299E-1,-2.210902405E-1,9.872569885E0,9.877735408E0
1.549856279E1,-2.318678284E-1,-2.165995789E-1,9.849966888E0,9.855076142E0
1.550859479E1,-2.216889954E-1,-2.107617188E-1,9.848470001E0,9.853219163E0
1.551862579E1,-2.121089172E-1,-1.851649475E-1,9.862391052E0,9.866409353E0
1.552865679E1,-1.902543640E-1,-1.926493835E-1,9.875563660E0,9.879274675E0
1.553868779E1,-1.880090332E-1,-1.860630798E-1,9.868977356E0,9.872521508E0
1.554871979E1,-1.823208618E-1,-1.797761536E-1,9.864636383E0,9.867958823E0
1.555875079E1,-2.004331970E-1,-2.046244812E-1,9.840985565E0,9.845153200E0
1.556878179E1,-2.008822632E-1,-2.335144043E-1,9.831555176E0,9.836379407E0
1.557881379E1,-2.260299683E-1,-2.531236267E-1,9.828711090E0,9.834567749E0
1.558884479E1,-2.287243652E-1,-2.604583740E-1,9.804611206E0,9.810736685E0
1.559887579E1,-2.276765442E-1,-2.832110596E-1,9.809700623E0,9.816428649E0
1.560890779E1,-2.065704346E-1,-2.728825378E-1,9.809401245E0,9.815370039E0
1.561893879E1,-2.043251038E-1,-2.603086853E-1,9.839638367E0,9.845201499E0
1.562896979E1,-1.944456482E-1,-2.393522644E-1,9.859696655E0,9.864518070E0
1.563900179E1,-2.022294617E-1,-2.257305908E-1,9.840237122E0,9.844903131E0
1.564903279E1,-2.195933533E-1,-2.257305908E-1,9.851912842E0,9.856944871E0
1.565906379E1,-2.332150269E-1,-2.189945984E-1,9.853110352E0,9.858302667E0
1.566909579E1,-2.546205139E-1,-2.089654541E-1,9.852212219E0,9.857716966E0
1.567912679E1,-2.486329651E-1,-2.086660767E-1,9.845925293E0,9.851274271E0
1.568915667E1,-2.406994629E-1,-1.951940918E-1,9.846074982E0,9.850950691E0
1.569918867E1,-2.335144043E-1,-1.963916016E-1,9.860295410E0,9.865015165E0
1.570921967E1,-2.221380615E-1,-1.881587219E-1,9.859846344E0,9.864143093E0
1.571925067E1,-2.053729248E-1,-1.860630798E-1,9.874964905E0,9.878852635E0
1.572928267E1,-2.064207458E-1,-2.068698120E-1,9.864935760E0,9.869263509E0
1.573931367E1,-2.064207458E-1,-2.029779053E-1,9.855804749E0,9.860055618E0
1.574934467E1,-2.154020691E-1,-2.106120300E-1,9.856104126E0,9.860707075E0
1.575937667E1,-2.188449097E-1,-2.077679443E-1,9.843230896E0,9.847855355E0
1.576940767E1,-2.348616028E-1,-2.399510193E-1,9.824669495E0,9.830405238E0
1.577943867E1,-2.314187622E-1,-2.516267395E-1,9.820178833E0,9.826127567E0
1.578947067E1,-2.375559998E-1,-2.445913696E-1,9.856253815E0,9.862149718E0
1.579950167E1,-2.089654541E-1,-2.380050659E-1,9.883197784E0,9.888271407E0
1.580953267E1,-1.944456482E-1,-2.222877502E-1,9.892179108E0,9.896586707E0
1.581956467E1,-1.935475159E-1,-2.154020691E-1,9.903854828E0,9.908087562E0
1.582959567E1,-1.767823792E-1,-1.859133911E-1,9.832004242E0,9.835350691E0
1.583962667E1,-1.907034302E-1,-1.872605896E-1,9.805659027E0,9.809300856E0
1.584965767E1,-2.140548706E-1,-1.938468933E-1,9.825417938E0,9.829660918E0
1.585968967E1,-2.192939758E-1,-2.143542480E-1,9.837393036E0,9.842171475E0
1.586972067E1,-2.227368164E-1,-2.276765442E-1,9.849667511E0,9.854815999E0
1.587975167E1,-2.195933533E-1,-2.516267395E-1,9.850565643E0,9.856225482E0
1.588978367E1,-2.257305908E-1,-2.489323425E-1,9.818532257E0,9.824281006E0
1.589981467E1,-2.318678284E-1,-2.429447937E-1,9.786199493E0,9.791960242E0
1.590984567E1,-2.412982178E-1,-2.233355713E-1,9.881700897E0,9.887169273E0
1.591987767E1,-1.838177490E-1,-2.311193848E-1,1.000384689E1,1.000820452E1
1.592990867E1,-1.148112488E-1,-2.246827698E-1,1.004635849E1,1.004952650E1
1.593993967E1,-1.450483704E-1,-2.393522644E-1,9.819879456E0,9.823866910E0
1.594997167E1,-2.402503967E-1,-2.302212524E-1,9.688901825E0,9.694614002E0
1.596000267E1,-3.002755737E-1,-2.415975952E-1,9.716444550E0,9.724085021E0
1.597003367E1,-3.092568970E-1,-2.263293457E-1,9.803413696E0,9.810901330E0
1.598006567E1,-2.613565063E-1,-2.433938599E-1,9.894125061E0,9.900568596E0
1.599009667E1,-1.932481384E-1,-2.591111755E-1,9.911039886E0,9.916309549E0
1.600012767E1,-1.519340515E-1,-2.368075562E-1,9.854457550E0,9.858473278E0
1.601015967E1,-1.576222229E-1,-2.088157654E-1,9.793833618E0,9.797327479E0
1.602019067E1,-2.264790344E-1,-1.799258423E-1,9.769584045E0,9.773865074E0
1.603022167E1,-2.573149109E-1,-1.531315613E-1,9.810149689E0,9.814718394E0
1.604025367E1,-2.472857666E-1,-1.312770081E-1,9.853559418E0,9.857536056E0
1.605028467E1,-2.377056885E-1,-1.243913269E-1,9.860594788E0,9.864243851E0
1.606031567E1,-1.845661926E-1,-1.221459961E-1,9.852661285E0,9.855146814E0
1.607034767E1,-1.791773987E-1,-1.416055298E-1,9.886341248E0,9.888978710E0
1.608037867E1,-1.889071655E-1,-1.733395386E-1,9.924212494E0,9.927523666E0
1.609040967E1,-2.082170105E-1,-2.083666992E-1,9.938881989E0,9.943246260E0
1.610044167E1,-2.183958435E-1,-2.451901245E-1,9.916578369E0,9.922012976E0
1.611047267E1,-2.248324585E-1,-2.812651062E-1,9.869725800E0,9.876292171E0
1.612050367E1,-2.374063110E-1,-2.896476746E-1,9.825118561E0,9.832253672E0
1.613053567E1,-2.239343262E-1,-2.763253784E-1,9.806407471E0,9.812855333E0
1.614056667E1,-2.040257263E-1,-2.670446777E-1,9.804760895E0,9.810518618E0
1.615059767E1,-2.004331970E-1,-2.574645996E-1,9.817334747E0,9.822755368E0
1.616062967E1,-1.980381775E-1,-2.688409424E-1,9.820328522E0,9.826003605E0
1.617066067E1,-1.890568542E-1,-2.604583740E-1,9.842482452E0,9.847742984E0
1.618069167E1,-1.889071655E-1,-2.664459229E-1,9.865235138E0,9.870640490E0
1.619072367E1,-1.923500061E-1,-2.725831604E-1,9.893226929E0,9.898850396E0
1.620075467E1,-2.058219910E-1,-2.661465454E-1,9.880204010E0,9.885930809E0
1.621078567E1,-2.269281006E-1,-2.377056885E-1,9.843230896E0,9.848715390E0
1.622081667E1,-2.395019531E-1,-2.148033142E-1,9.808503113E0,9.813777813E0
