"Time (s)","Acceleration x (m/s^2)","Acceleration y (m/s^2)","Acceleration z (m/s^2)","Absolute acceleration (m/s^2)"
1.570999972E-3,-3.647914124E-1,8.337661743E-2,1.023137375E1,1.023821436E1
1.160199998E-2,9.654922485E-2,2.418969727E-1,9.942624207E0,9.946034989E0
2.163300000E-2,2.061213684E-1,4.568499756E-1,9.563312988E0,9.576437398E0
3.166499996E-2,4.355941772E-2,5.288502502E-1,9.150022430E0,9.165396363E0
4.169599997E-2,-4.595443726E-2,5.622308350E-1,8.858578491E0,8.876521177E0
5.172699998E-2,-6.346801758E-2,5.560935974E-1,8.781039734E0,8.798859420E0
6.175900000E-2,-5.733078003E-2,5.313949585E-1,9.017996979E0,9.033821834E0
7.178999996E-2,-9.310638428E-2,4.674778748E-1,9.390871582E0,9.402960886E0
8.182199998E-2,-1.228944397E-1,3.941304016E-1,9.764045563E0,9.772769698E0
9.185299999E-2,-1.154100037E-1,3.829037476E-1,1.008093658E1,1.008886600E1
1.018840000E-1,-9.505233765E-2,3.823049927E-1,1.029050079E1,1.029803858E1
1.119160000E-1,-6.915618896E-2,3.917353821E-1,1.040725800E1,1.041485757E1
1.219470000E-1,-1.062789917E-2,4.400848389E-1,1.039363632E1,1.040295456E1
1.319790000E-1,2.993774414E-3,4.760101318E-1,1.025622208E1,1.026726282E1
1.420100000E-1,-2.185455322E-2,4.896318054E-1,1.006611740E1,1.007804229E1
1.520410000E-1,-3.547622681E-2,4.860392761E-1,9.876761169E0,9.888776665E0
1.620730000E-1,-5.403762817E-2,5.387297058E-1,9.729168091E0,9.744221955E0
1.721040000E-1,-8.202941895E-2,5.463638306E-1,9.688901825E0,9.704641201E0
1.821360000E-1,-1.526824951E-1,5.777984619E-1,9.565857697E0,9.584508150E0
1.921670000E-1,-2.453398132E-1,5.653742981E-1,9.427844696E0,9.447967789E0
2.021980000E-1,-3.200344849E-1,5.725593567E-1,9.385632477E0,9.408525032E0
2.122300000E-1,-2.791694641E-1,5.095404053E-1,9.405990143E0,9.423917316E0
2.222610000E-1,-2.049238586E-1,3.844006348E-1,9.748328247E0,9.758056223E0
2.322930000E-1,-1.240919495E-1,2.900967407E-1,1.003363495E1,1.003859478E1
2.423240000E-1,-1.007405090E-1,1.847158813E-1,1.011177246E1,1.011396119E1
2.523550000E-1,-3.382965088E-2,2.371069336E-1,1.018781433E1,1.019062927E1
2.623870000E-1,-7.020401001E-2,3.649411011E-1,1.014724869E1,1.015405173E1
2.724180000E-1,-1.787283325E-1,4.358935547E-1,1.004980133E1,1.006083763E1
2.824500000E-1,-2.552192688E-1,5.004093933E-1,9.966724091E0,9.982541537E0
2.924810000E-1,-2.767744446E-1,5.355862427E-1,9.909842377E0,9.928163609E0
3.025120000E-1,-2.168989563E-1,5.583389282E-1,9.843979340E0,9.862186206E0
3.125440000E-1,-1.562750244E-1,5.641767883E-1,9.773925018E0,9.791441548E0
3.225750000E-1,-1.507365417E-1,5.432203674E-1,9.701176300E0,9.717542461E0
3.326060000E-1,-1.739382935E-1,4.878355408E-1,9.690099335E0,9.703930295E0
3.426380000E-1,-2.004331970E-1,4.400848389E-1,9.695338440E0,9.707390772E0
3.526690000E-1,-2.294728088E-1,4.083508301E-1,9.782906342E0,9.794113776E0
3.627010000E-1,-2.496807861E-1,3.900888062E-1,9.862540741E0,9.873409727E0
3.727320000E-1,-2.263293457E-1,3.537144470E-1,9.914033661E0,9.922923073E0
3.827630000E-1,-2.080673218E-1,3.426374817E-1,9.927805023E0,9.935894778E0
3.927950000E-1,-1.854643250E-1,3.644920349E-1,9.950707397E0,9.959107850E0
4.028260000E-1,-1.663041687E-1,3.748205566E-1,9.937235413E0,9.945692292E0
4.128580000E-1,-1.760339355E-1,4.017645264E-1,9.890382843E0,9.900104821E0
4.228890000E-1,-1.865121460E-1,4.236190796E-1,9.840386810E0,9.851266542E0
4.329200000E-1,-2.022294617E-1,4.376898193E-1,9.809401245E0,9.821243400E0
4.429520000E-1,-2.053729248E-1,4.516108704E-1,9.821376343E0,9.833898702E0
4.529830000E-1,-2.275268555E-1,4.468208313E-1,9.808203735E0,9.821012058E0
4.630150000E-1,-2.326162720E-1,4.601431274E-1,9.730814667E0,9.744464896E0
4.730460000E-1,-2.552192688E-1,4.719685364E-1,9.724976807E0,9.739767198E0
4.830770000E-1,-2.489323425E-1,4.724176025E-1,9.846823425E0,9.861291866E0
4.931090000E-1,-2.225871277E-1,4.649331665E-1,9.926906891E0,9.940281098E0
5.031400000E-1,-1.835183716E-1,4.565505981E-1,9.948312378E0,9.960473714E0
5.131720000E-1,-1.598675537E-1,4.403842163E-1,9.898166656E0,9.909248158E0
5.232030000E-1,-1.556762695E-1,4.367916870E-1,9.867630157E0,9.878519474E0
5.332340000E-1,-1.701960754E-1,4.311035156E-1,9.835297394E0,9.846212052E0
5.432660000E-1,-1.859133911E-1,4.177812195E-1,9.826465759E0,9.837099890E0
5.532970000E-1,-2.035766602E-1,4.207749939E-1,9.852212219E0,9.863294615E0
5.633290000E-1,-2.124082947E-1,4.204756165E-1,9.869576111E0,9.880812195E0
5.733600000E-1,-2.068698120E-1,4.366419983E-1,9.865983582E0,9.877807620E0
5.833910000E-1,-2.106120300E-1,4.541555786E-1,9.851763153E0,9.864474235E0
5.934230000E-1,-2.134561157E-1,4.532574463E-1,9.843530273E0,9.856271814E0
6.034540000E-1,-2.097138977E-1,4.363426208E-1,9.851014709E0,9.862903508E0
6.134860000E-1,-2.267784119E-1,4.258644104E-1,9.854756927E0,9.866560852E0
6.235170000E-1,-2.104623413E-1,4.001179504E-1,9.875713348E0,9.886055984E0
6.335480000E-1,-2.052232361E-1,3.818559265E-1,9.887838135E0,9.897336687E0
6.435800000E-1,-2.052232361E-1,3.686833191E-1,9.875563660E0,9.884573919E0
6.536110000E-1,-2.183958435E-1,3.695814514E-1,9.873318329E0,9.882646509E0
6.636420000E-1,-2.055226135E-1,3.760180664E-1,9.853709106E0,9.863022472E0
6.736740000E-1,-2.197430420E-1,3.835025024E-1,9.852810974E0,9.862719973E0
6.837050000E-1,-2.290237427E-1,4.053570557E-1,9.823322296E0,9.834349351E0
6.937370000E-1,-2.248324585E-1,4.122427368E-1,9.806856537E0,9.818091915E0
7.037680000E-1,-2.338137817E-1,4.074526978E-1,9.794881439E0,9.806140372E0
7.137990000E-1,-2.492317200E-1,4.174818420E-1,9.783954163E0,9.796028103E0
7.238310000E-1,-2.685415649E-1,4.186793518E-1,9.794731750E0,9.807353213E0
7.338620000E-1,-2.649490356E-1,4.092489624E-1,9.834998016E0,9.847074118E0
7.438940000E-1,-2.386038208E-1,4.087998962E-1,9.863139496E0,9.874490866E0
7.539250000E-1,-2.195933533E-1,4.210743713E-1,9.883946228E0,9.895348296E0
7.639560000E-1,-2.073188782E-1,4.174818420E-1,9.889484711E0,9.900463628E0
7.739887916E-1,-2.014810181E-1,4.242178345E-1,9.883946228E0,9.895097191E0
7.840197916E-1,-2.104623413E-1,4.287084961E-1,9.871671753E0,9.883217521E0
7.940517917E-1,-2.269281006E-1,4.261637878E-1,9.843230896E0,9.855065013E0
8.040827917E-1,-2.562670898E-1,4.306544495E-1,9.857451324E0,9.870181492E0
8.141137916E-1,-2.496807861E-1,4.323010254E-1,9.843829651E0,9.856480450E0
8.241457916E-1,-2.486329651E-1,4.122427368E-1,9.819580078E0,9.831374031E0
8.341767917E-1,-2.514770508E-1,4.200265503E-1,9.846673737E0,9.858835970E0
8.442087916E-1,-2.480342102E-1,4.001179504E-1,9.838889923E0,9.850145698E0
8.542397916E-1,-2.227368164E-1,3.987707520E-1,9.850116577E0,9.860701110E0
8.642707916E-1,-2.065704346E-1,3.924838257E-1,9.866881714E0,9.876845127E0
8.743027917E-1,-1.965412903E-1,3.888912964E-1,9.880952454E0,9.890555410E0
8.843337916E-1,-1.917512512E-1,3.858975220E-1,9.881700897E0,9.891091854E0
8.943657916E-1,-2.046244812E-1,3.870950317E-1,9.854906616E0,9.864628638E0
9.043967917E-1,-2.312690735E-1,3.782633972E-1,9.841734009E0,9.851715428E0
9.144277917E-1,-2.454895020E-1,3.920347595E-1,9.834099884E0,9.844972162E0
9.244597916E-1,-2.436932373E-1,3.878434753E-1,9.864486694E0,9.875115528E0
9.344907916E-1,-2.276765442E-1,4.119433594E-1,9.893376617E0,9.904566363E0
9.445227917E-1,-2.264790344E-1,4.327500916E-1,9.827962646E0,9.840092234E0
9.545537917E-1,-2.368075562E-1,4.415817261E-1,9.790241089E0,9.803055280E0
9.645847916E-1,-2.399510193E-1,4.264631653E-1,9.758956146E0,9.771216525E0
9.746167916E-1,-2.731819153E-1,4.275109863E-1,9.774074707E0,9.787233030E0
9.846477917E-1,-2.721340942E-1,3.872447205E-1,9.814640350E0,9.826046033E0
9.946797916E-1,-2.644999695E-1,3.861968994E-1,9.895322571E0,9.906387690E0
1.004710792E0,-2.405497742E-1,3.890409851E-1,9.900411987E0,9.910972435E0
1.014741792E0,-2.365081787E-1,3.888912964E-1,9.802515564E0,9.813077190E0
1.024773792E0,-2.474354553E-1,3.918850708E-1,9.816286926E0,9.827221745E0
1.034804792E0,-2.318678284E-1,4.040098572E-1,9.919871521E0,9.930802467E0
1.044835792E0,-1.896556091E-1,4.085005188E-1,1.005998016E1,1.007005674E1
1.054867792E0,-1.534309387E-1,4.161346436E-1,1.004875351E1,1.005853648E1
1.064898792E0,-1.898052979E-1,4.147874451E-1,9.795480194E0,9.806095396E0
1.074930792E0,-3.073109436E-1,4.248165894E-1,9.592053223E0,9.606372582E0
1.084961792E0,-3.595523071E-1,4.053570557E-1,9.591903534E0,9.607195512E0
1.094992792E0,-3.230282593E-1,3.872447205E-1,9.763746185E0,9.776760471E0
1.105024792E0,-2.576142883E-1,3.620970154E-1,9.961784363E0,9.971691284E0
1.115055792E0,-1.663041687E-1,3.502716064E-1,9.998009033E0,1.000552507E1
1.125087792E0,-1.348695374E-1,3.513194275E-1,9.929451599E0,9.936580105E0
1.135118792E0,-1.586700439E-1,3.703298950E-1,9.833501129E0,9.841751108E0
1.145149792E0,-2.011816406E-1,3.954776001E-1,9.820627899E0,9.830646414E0
1.155181792E0,-2.555186462E-1,4.010160828E-1,9.855355682E0,9.866820121E0
1.165212792E0,-2.811154175E-1,4.212240601E-1,9.876012726E0,9.888987964E0
1.175244792E0,-2.671943665E-1,4.614903259E-1,9.886341248E0,9.900712571E0
1.185275792E0,-2.386038208E-1,4.870870972E-1,9.859247589E0,9.874155592E0
1.195306792E0,-2.067201233E-1,4.992118835E-1,9.834399261E0,9.849231165E0
1.205338792E0,-2.145039368E-1,5.017565918E-1,9.832004242E0,9.847135575E0
1.215369792E0,-2.227368164E-1,4.433779907E-1,9.851164398E0,9.863652251E0
1.225401792E0,-2.333647156E-1,3.912863159E-1,9.859247589E0,9.869768340E0
1.235432792E0,-2.384541321E-1,3.743714905E-1,9.878407745E0,9.888374688E0
1.245463792E0,-2.710862732E-1,3.619473267E-1,9.864037628E0,9.874397803E0
1.255495792E0,-2.721340942E-1,3.499722290E-1,9.841584320E0,9.851564315E0
1.265526792E0,-2.874023438E-1,3.644920349E-1,9.832004242E0,9.842954941E0
1.275558792E0,-2.577639771E-1,3.782633972E-1,9.829309845E0,9.839962271E0
1.285589792E0,-2.550695801E-1,3.749702454E-1,9.837842102E0,9.848289212E0
1.295620792E0,-2.426454163E-1,3.923341370E-1,9.838141479E0,9.848950738E0
1.305652792E0,-2.097138977E-1,3.902384949E-1,9.819879456E0,9.829867676E0
1.315683792E0,-2.026785278E-1,4.008663940E-1,9.835297394E0,9.845549618E0
1.325715792E0,-2.085163879E-1,4.119433594E-1,9.868228912E0,9.879024156E0
1.335746792E0,-2.191442871E-1,4.245172119E-1,9.888586578E0,9.900120383E0
1.345777792E0,-2.275268555E-1,4.378395081E-1,9.822424164E0,9.834810032E0
1.355809792E0,-2.745291138E-1,4.628375244E-1,9.755662994E0,9.770493604E0
1.365840792E0,-3.023712158E-1,4.749623108E-1,9.750573578E0,9.766816403E0
1.375872792E0,-2.866539001E-1,4.625381470E-1,9.798024902E0,9.813124068E0
1.385903792E0,-2.080673218E-1,4.531077576E-1,9.871372375E0,9.883956254E0
1.395934792E0,-1.618135071E-1,4.433779907E-1,9.892628174E0,9.903881049E0
1.405966792E0,-1.706451416E-1,4.363426208E-1,9.806407471E0,9.817593500E0
1.415997792E0,-2.109114075E-1,4.252656555E-1,9.730066223E0,9.741638630E0
1.426028792E0,-2.474354553E-1,4.352947998E-1,9.697883148E0,9.710800349E0
1.436060792E0,-2.676434326E-1,4.236190796E-1,9.764644318E0,9.777492766E0
1.446091792E0,-2.671943665E-1,4.201762390E-1,9.861792297E0,9.874355079E0
1.456123792E0,-2.511776733E-1,4.257147217E-1,9.951156464E0,9.963425024E0
1.466154792E0,-2.516267395E-1,4.345463562E-1,9.995164948E0,1.000777043E1
1.476185792E0,-2.423460388E-1,4.357438660E-1,9.923913116E0,9.936430741E0
1.486217792E0,-2.537223816E-1,4.092489624E-1,9.885892181E0,9.897612034E0
1.496248792E0,-2.454895020E-1,3.827540588E-1,9.906249847E0,9.916680483E0
1.506280792E0,-2.246827698E-1,3.411405945E-1,9.919871521E0,9.928278312E0
1.516311792E0,-2.285746765E-1,3.347039795E-1,9.927206268E0,9.935476709E0
1.526342792E0,-2.168989563E-1,3.150947571E-1,9.904154205E0,9.911538750E0
1.536374792E0,-2.359094238E-1,3.195854187E-1,9.872120819E0,9.880109188E0
1.546405792E0,-2.465373230E-1,3.379971313E-1,9.840386810E0,9.849275876E0
1.556437792E0,-2.414479065E-1,3.490740967E-1,9.814191284E0,9.823365023E0
1.566468792E0,-2.520758057E-1,3.378474426E-1,9.793833618E0,9.802900594E0
1.576499792E0,-2.676434326E-1,3.611988831E-1,9.782457275E0,9.792781422E0
1.586531792E0,-2.751278687E-1,3.577560425E-1,9.776469727E0,9.786881273E0
1.596562792E0,-2.639012146E-1,3.659889221E-1,9.817634125E0,9.827997332E0
1.606594792E0,-2.607577515E-1,3.757186890E-1,9.838440857E0,9.849064810E0
1.616625792E0,-2.653981018E-1,4.059558105E-1,9.893975372E0,9.905856093E0
1.626656792E0,-2.833607483E-1,4.068539429E-1,9.920470276E0,9.932852256E0
1.636688792E0,-2.736309814E-1,4.170327759E-1,9.917626190E0,9.930161101E0
1.646719792E0,-2.745291138E-1,4.043092346E-1,9.895472260E0,9.907532661E0
1.656751792E0,-3.025209045E-1,4.183799744E-1,9.882449341E0,9.895926721E0
1.666782792E0,-2.848576355E-1,4.004173279E-1,9.867929535E0,9.880157449E0
1.676813792E0,-2.863545227E-1,3.983216858E-1,9.853110352E0,9.865315133E0
1.686845792E0,-2.848576355E-1,3.728746033E-1,9.855205994E0,9.866370382E0
1.696876792E0,-2.878514099E-1,3.659889221E-1,9.818232880E0,9.829267684E0
1.706908792E0,-2.800675964E-1,3.522175598E-1,9.842183075E0,9.852464806E0
1.716939792E0,-2.766247559E-1,3.290158081E-1,9.835297394E0,9.844686256E0
1.726970792E0,-2.541714478E-1,3.129991150E-1,9.843829651E0,9.852083727E0
1.737002792E0,-2.649490356E-1,3.107537842E-1,9.859846344E0,9.868299541E0
1.747033792E0,-2.556683350E-1,2.918930054E-1,9.881850586E0,9.889466054E0
1.757065792E0,-2.697390747E-1,2.962339783E-1,9.880503387E0,9.888622802E0
1.767096792E0,-2.592608643E-1,2.971321106E-1,9.910890198E0,9.918732187E0
1.777126500E0,-2.624043274E-1,2.897973633E-1,9.924511871E0,9.932208940E0
1.787158500E0,-2.764750671E-1,2.897973633E-1,9.909393311E0,9.917484397E0
1.797189500E0,-2.772235107E-1,3.147953796E-1,9.876461792E0,9.885365271E0
1.807221500E0,-2.649490356E-1,3.354524231E-1,9.840985565E0,9.850265134E0
1.817252500E0,-2.444416809E-1,3.451821899E-1,9.831704865E0,9.840798902E0
1.827283500E0,-2.426454163E-1,3.442840576E-1,9.813143463E0,9.822178625E0
1.837315500E0,-2.365081787E-1,3.595523071E-1,9.821975098E0,9.831399127E0
1.847346500E0,-2.406994629E-1,3.597019958E-1,9.817933502E0,9.827468647E0
1.857377500E0,-2.677931213E-1,3.579057312E-1,9.813293152E0,9.823468438E0
1.867409500E0,-2.600093079E-1,3.707789612E-1,9.833201752E0,9.843624260E0
1.877440500E0,-2.606080627E-1,3.743714905E-1,9.877210236E0,9.887737487E0
1.887472500E0,-2.733316040E-1,3.881428528E-1,9.856253815E0,9.867679783E0
1.897503500E0,-2.604583740E-1,4.040098572E-1,9.853110352E0,9.864828743E0
1.907534500E0,-2.496807861E-1,4.230203247E-1,9.814939728E0,9.827223848E0
1.917566500E0,-2.363584900E-1,4.192781067E-1,9.821975098E0,9.833760943E0
1.927597500E0,-2.363584900E-1,3.915856934E-1,9.820178833E0,9.830824838E0
1.937629500E0,-2.408491516E-1,3.677851868E-1,9.837093658E0,9.846912506E0
1.947660500E0,-2.436932373E-1,3.388952637E-1,9.850565643E0,9.859405656E0
1.957691500E0,-2.552192688E-1,3.336561584E-1,9.859846344E0,9.868790870E0
1.967723500E0,-2.610571289E-1,3.173400879E-1,9.833052063E0,9.841634439E0
1.977754500E0,-2.636018372E-1,3.338058472E-1,9.794132996E0,9.803364392E0
1.987786500E0,-2.591111755E-1,3.293151855E-1,9.813442841E0,9.822385020E0
1.997817500E0,-2.453398132E-1,3.335064697E-1,9.802066498E0,9.810806583E0
2.007848500E0,-2.157014465E-1,3.165916443E-1,9.907746735E0,9.915150162E0
2.017880500E0,-1.695973206E-1,2.941383362E-1,1.002540207E1,1.003114985E1
2.027911500E0,-1.685494995E-1,2.972817993E-1,9.888137512E0,9.894041078E0
2.037943500E0,-2.567161560E-1,2.960842896E-1,9.747729492E0,9.755603484E0
2.047974500E0,-3.121009827E-1,3.052153015E-1,9.748777313E0,9.758546127E0
2.058005500E0,-2.815644836E-1,3.224295044E-1,9.793384552E0,9.802735349E0
2.068037500E0,-2.683918762E-1,3.266207886E-1,9.875114594E0,9.884159224E0
2.078068500E0,-2.160008240E-1,3.224295044E-1,9.891430664E0,9.899041253E0
2.088100500E0,-1.743873596E-1,3.493734741E-1,9.824220428E0,9.831977411E0
2.098131500E0,-1.971400452E-1,3.890409851E-1,9.802515564E0,9.812213230E0
2.108162500E0,-2.137554932E-1,4.170327759E-1,9.817783813E0,9.828961632E0
2.118194500E0,-2.543211365E-1,4.553530884E-1,9.863588562E0,9.877368323E0
2.128225500E0,-2.624043274E-1,4.514611816E-1,9.876761169E0,9.890555314E0
2.138257500E0,-2.689906311E-1,4.487667847E-1,9.865833893E0,9.879697667E0
2.148288500E0,-2.332150269E-1,4.331991577E-1,9.858050079E0,9.870319251E0
2.158319500E0,-2.207908630E-1,3.989204407E-1,9.882599030E0,9.893111225E0
2.168351500E0,-1.892065430E-1,3.685336304E-1,9.913734283E0,9.922385983E0
2.178382500E0,-1.860630798E-1,3.173400879E-1,9.911788330E0,9.918612408E0
2.188413500E0,-2.100132751E-1,3.035687256E-1,9.908644867E0,9.915518274E0
2.198445500E0,-2.207908630E-1,2.944377136E-1,9.868677979E0,9.875537819E0
2.208476500E0,-2.468367004E-1,3.073109436E-1,9.827812958E0,9.835714306E0
2.218508500E0,-2.760260010E-1,3.128494263E-1,9.769883423E0,9.778787615E0
2.228539500E0,-2.668949890E-1,3.251239014E-1,9.763147430E0,9.772204779E0
2.238570500E0,-2.610571289E-1,3.272195435E-1,9.768536224E0,9.777500878E0
2.248602500E0,-2.389031982E-1,3.137475586E-1,9.797426147E0,9.805359319E0
2.258633500E0,-1.977388000E-1,3.110531616E-1,9.823921051E0,9.830833104E0
2.268665500E0,-2.007325745E-1,3.150947571E-1,9.857601013E0,9.864678201E0
2.278696500E0,-1.945953369E-1,3.124003601E-1,9.905501404E0,9.912336727E0
2.288727500E0,-1.962419128E-1,3.285667419E-1,9.895621948E0,9.903019779E0
2.298759500E0,-2.224374390E-1,3.513194275E-1,9.858199768E0,9.866965411E0
2.308790500E0,-2.540217590E-1,3.939807129E-1,9.848170624E0,9.859321097E0
2.318822500E0,-2.612068176E-1,3.944297791E-1,9.856403503E0,9.867750193E0
2.328853500E0,-2.297721863E-1,3.778143311E-1,9.861343231E0,9.871252669E0
2.338884500E0,-2.092648315E-1,3.628454590E-1,9.817484436E0,9.826415890E0
2.348916500E0,-1.956431580E-1,3.650907898E-1,9.798024902E0,9.806776204E0
2.358947500E0,-1.871109009E-1,3.676354980E-1,9.856702881E0,9.865331116E0
2.368979500E0,-1.948947144E-1,3.758683777E-1,9.898915100E0,9.907965540E0
2.379010500E0,-2.180964661E-1,3.775149536E-1,9.908046112E0,9.917633859E0
2.389041500E0,-2.335144043E-1,3.956272888E-1,9.884994049E0,9.895663559E0
2.399073500E0,-2.163002014E-1,3.993695068E-1,9.849667511E0,9.860133460E0
2.409104500E0,-2.085163879E-1,4.023632813E-1,9.823921051E0,9.834368313E0
2.419136500E0,-1.936972046E-1,4.019142151E-1,9.815688171E0,9.825822506E0
2.429167500E0,-1.884580994E-1,3.790118408E-1,9.836943970E0,9.846046572E0
2.439198500E0,-1.790277100E-1,3.683839417E-1,9.859397278E0,9.867901111E0
2.449230500E0,-1.827699280E-1,3.417393494E-1,9.861492920E0,9.869104987E0
2.459261500E0,-1.939965820E-1,3.200344849E-1,9.864486694E0,9.871583180E0
2.469293500E0,-2.050735474E-1,3.137475586E-1,9.852661285E0,9.859788390E0
2.479324500E0,-2.237846375E-1,3.047662354E-1,9.834548950E0,9.841814623E0
2.489355500E0,-2.360591125E-1,2.945874023E-1,9.810149689E0,9.817410176E0
2.499387500E0,-2.353106689E-1,2.978805542E-1,9.809251556E0,9.816594116E0
2.509418500E0,-2.329156494E-1,3.043171692E-1,9.816885681E0,9.824362733E0
2.519450500E0,-2.106120300E-1,3.135978699E-1,9.833201752E0,9.840455159E0
2.529481500E0,-2.067201233E-1,2.983296204E-1,9.839338989E0,9.846030952E0
2.539512500E0,-1.996847534E-1,3.180885315E-1,9.847871246E0,9.855030309E0
2.549544500E0,-2.168989563E-1,3.174897766E-1,9.842332764E0,9.849840565E0
2.559575500E0,-2.251318359E-1,3.168910217E-1,9.827513580E0,9.835198393E0
2.569607500E0,-2.354603577E-1,3.119512939E-1,9.824370117E0,9.832141343E0
2.579638500E0,-2.465373230E-1,3.396437073E-1,9.848919067E0,9.857857034E0
2.589669500E0,-2.282752991E-1,3.409909058E-1,9.877808990E0,9.886328685E0
2.599701500E0,-2.154020691E-1,3.703298950E-1,9.866732025E0,9.876028713E0
2.609732500E0,-2.212399292E-1,3.826043701E-1,9.851463776E0,9.861372710E0
2.619764500E0,-1.989363098E-1,3.947291565E-1,9.854607239E0,9.864515730E0
2.629795500E0,-1.919009399E-1,4.022135925E-1,9.841734009E0,9.851818616E0
2.639826500E0,-2.065704346E-1,3.947291565E-1,9.854906616E0,9.864971711E0
2.649858500E0,-2.098635864E-1,3.841012573E-1,9.846524048E0,9.856247375E0
2.659889500E0,-2.185455322E-1,3.504212952E-1,9.824819183E0,9.833495270E0
2.669920500E0,-2.230361938E-1,3.317102051E-1,9.850266266E0,9.858373208E0
2.679952500E0,-2.257305908E-1,3.288661194E-1,9.869576111E0,9.877633311E0
2.689983500E0,-1.983375549E-1,3.266207886E-1,9.856253815E0,9.863658458E0
2.700015500E0,-2.031275940E-1,3.091072083E-1,9.846524048E0,9.853468623E0
2.710046500E0,-2.023791504E-1,3.246748352E-1,9.839788055E0,9.847222961E0
2.720077500E0,-2.010319519E-1,3.369493103E-1,9.849218445E0,9.857030621E0
2.730109500E0,-1.877096558E-1,3.577560425E-1,9.879305878E0,9.887563346E0
2.740140500E0,-1.832189941E-1,3.537144470E-1,9.871222687E0,9.879257079E0
2.750172500E0,-1.773811340E-1,3.712280273E-1,9.849817200E0,9.858406219E0
2.760203500E0,-1.833686829E-1,3.815565491E-1,9.832004242E0,9.841113600E0
2.770234500E0,-1.860630798E-1,3.683839417E-1,9.816885681E0,9.825557016E0
2.780266667E0,-2.025288391E-1,3.659889221E-1,9.821526031E0,9.830429259E0
2.790297667E0,-2.065704346E-1,3.620970154E-1,9.833950195E0,9.842782230E0
2.800329667E0,-2.350112915E-1,3.264710999E-1,9.855505371E0,9.863711259E0
2.810360667E0,-2.432441711E-1,3.290158081E-1,9.859846344E0,9.868332638E0
2.820391667E0,-2.351609802E-1,3.288661194E-1,9.854457550E0,9.862747448E0
2.830423667E0,-2.203417969E-1,3.288661194E-1,9.843530273E0,9.851486775E0
2.840454667E0,-2.017803955E-1,3.463796997E-1,9.837842102E0,9.846005863E0
2.850486667E0,-1.835183716E-1,3.354524231E-1,9.835596771E0,9.843026525E0
2.860517667E0,-1.561253357E-1,3.134481812E-1,9.954150238E0,9.960307819E0
2.870548667E0,-1.212478638E-1,3.064128113E-1,9.974956970E0,9.980398610E0
2.880580667E0,-1.676513672E-1,3.118016052E-1,9.803264008E0,9.809654042E0
2.890611667E0,-2.417472839E-1,3.019221497E-1,9.715696106E0,9.723391875E0
2.900643667E0,-2.790197754E-1,3.001258850E-1,9.767488403E0,9.776080876E0
2.910674667E0,-2.647993469E-1,3.037184143E-1,9.833052063E0,9.841304611E0
2.920705667E0,-2.430944824E-1,3.043171692E-1,9.896220703E0,9.903882475E0
2.930737667E0,-2.082170105E-1,3.125500488E-1,9.887538757E0,9.894668490E0
2.940768667E0,-1.752854919E-1,3.496728516E-1,9.813143463E0,9.820935838E0
2.950800667E0,-1.751358032E-1,3.659889221E-1,9.795929260E0,9.804328152E0
2.960831667E0,-2.041754150E-1,4.064048767E-1,9.810748444E0,9.821284923E0
2.970862667E0,-2.243833923E-1,4.195774841E-1,9.819580078E0,9.831100960E0
2.980894667E0,-2.197430420E-1,4.342469788E-1,9.837991791E0,9.850022331E0
2.990925667E0,-2.026785278E-1,4.334985352E-1,9.854158173E0,9.865770768E0
3.000956667E0,-1.790277100E-1,4.162843323E-1,9.846673737E0,9.857095274E0
3.010988667E0,-1.905537415E-1,3.906875610E-1,9.878258057E0,9.887817238E0
3.021019667E0,-2.173480225E-1,3.481759644E-1,9.901609497E0,9.910112880E0
3.031051667E0,-2.130070496E-1,3.037184143E-1,9.924362183E0,9.931293048E0
3.041082667E0,-2.062710571E-1,2.977308655E-1,9.902208252E0,9.908830389E0
3.051113667E0,-2.104623413E-1,3.046165466E-1,9.887089691E0,9.894019820E0
3.061145667E0,-2.080673218E-1,3.260220337E-1,9.851314087E0,9.858903165E0
3.071176667E0,-2.076182556E-1,3.213816833E-1,9.814041595E0,9.821497033E0
3.081208667E0,-2.064207458E-1,3.284170532E-1,9.784253540E0,9.791939778E0
3.091239667E0,-1.984872437E-1,3.109034729E-1,9.767189026E0,9.774151606E0
3.101270667E0,-1.989363098E-1,3.121009827E-1,9.746981049E0,9.754005446E0
3.111302667E0,-1.875599670E-1,2.962339783E-1,9.779912567E0,9.786195539E0
3.121333667E0,-1.960922241E-1,2.712359619E-1,9.843081207E0,9.848769911E0
3.131365667E0,-2.065704346E-1,2.875520325E-1,9.890682220E0,9.897017344E0
3.141396667E0,-2.133064270E-1,3.243754578E-1,9.924811249E0,9.932401391E0
3.151427667E0,-2.293231201E-1,3.603007507E-1,9.880952454E0,9.890178316E0
3.161459667E0,-2.333647156E-1,4.073030090E-1,9.848919067E0,9.860099474E0
3.171490667E0,-2.329156494E-1,4.314028931E-1,9.818232880E0,9.830465657E0
3.181522667E0,-2.285746765E-1,4.272116089E-1,9.801018677E0,9.812987478E0
3.191553667E0,-1.832189941E-1,4.227209473E-1,9.757309570E0,9.768180601E0
3.201584667E0,-1.844165039E-1,3.929328918E-1,9.785750427E0,9.795372230E0
3.211616667E0,-1.818717957E-1,3.616479492E-1,9.870474243E0,9.878771602E0
3.221647667E0,-1.681004333E-1,3.353027344E-1,9.918674011E0,9.925763438E0
3.231679667E0,-2.082170105E-1,3.477268982E-1,9.947114868E0,9.955368528E0
3.241710667E0,-2.276765442E-1,3.673361206E-1,9.940528564E0,9.949918622E0
3.251741667E0,-2.056723022E-1,3.736230469E-1,9.925559692E0,9.934718440E0
3.261773667E0,-1.939965820E-1,3.817062378E-1,9.887389069E0,9.896655845E0
3.271804667E0,-1.764830017E-1,3.799099731E-1,9.866732025E0,9.875620421E0
3.281836667E0,-1.779798889E-1,3.885919189E-1,9.855954437E0,9.865217605E0
3.291867667E0,-1.883084106E-1,3.806584167E-1,9.851164398E0,9.860314442E0
3.301898667E0,-2.046244812E-1,3.653901672E-1,9.865534515E0,9.874419093E0
3.311930667E0,-2.173480225E-1,3.571572876E-1,9.865384827E0,9.874240187E0
3.321961667E0,-2.264790344E-1,3.537144470E-1,9.875563660E0,9.884491098E0
3.331993667E0,-2.344125366E-1,3.252735901E-1,9.842482452E0,9.850645307E0
3.342024667E0,-2.359094238E-1,3.177891541E-1,9.823921051E0,9.831890358E0
3.352055667E0,-2.478845215E-1,3.026705933E-1,9.789941711E0,9.797755607E0
3.362087667E0,-2.294728088E-1,2.817141724E-1,9.815987549E0,9.822710023E0
3.372118667E0,-2.264790344E-1,2.797682190E-1,9.830357666E0,9.836945402E0
3.382150667E0,-2.149530029E-1,2.832110596E-1,9.820627899E0,9.827061902E0
3.392181667E0,-2.035766602E-1,2.974314880E-1,9.821675720E0,9.828286875E0
3.402212667E0,-2.041754150E-1,3.198847961E-1,9.825417938E0,9.832743846E0
3.412244667E0,-2.071691895E-1,3.249742126E-1,9.849817200E0,9.857353914E0
3.422275667E0,-2.165995789E-1,3.333567810E-1,9.860445099E0,9.868455789E0
3.432306667E0,-2.206411743E-1,3.659889221E-1,9.865983582E0,9.875234805E0
3.442338667E0,-2.197430420E-1,3.788621521E-1,9.857301636E0,9.867026861E0
3.452369667E0,-2.161505127E-1,3.803590393E-1,9.868977356E0,9.878669348E0
3.462401667E0,-2.213896179E-1,4.008663940E-1,9.864337006E0,9.874960850E0
3.472432667E0,-2.369572449E-1,4.064048767E-1,9.884994049E0,9.896182143E0
3.482463667E0,-2.281256104E-1,3.766168213E-1,9.904004517E0,9.913787722E0
3.492495667E0,-2.103126526E-1,3.697311401E-1,9.939929810E0,9.949026945E0
3.502526667E0,-2.083666992E-1,3.658392334E-1,9.928703156E0,9.937625540E0
3.512558667E0,-1.956431580E-1,3.601510620E-1,9.923913116E0,9.932373159E0
3.522589667E0,-2.011816406E-1,3.490740967E-1,9.912536774E0,9.920721348E0
3.532620667E0,-2.080673218E-1,3.537144470E-1,9.881850586E0,9.890367886E0
3.542652667E0,-2.207908630E-1,3.514691162E-1,9.909243622E0,9.917932663E0
3.552683667E0,-2.097138977E-1,3.498225403E-1,9.910740509E0,9.919129658E0
3.562715667E0,-2.017803955E-1,3.637435913E-1,9.894274750E0,9.903014569E0
3.572746667E0,-1.971400452E-1,3.716770935E-1,9.849218445E0,9.858200243E0
3.582777667E0,-2.086660767E-1,3.778143311E-1,9.784852295E0,9.794366730E0
3.592809667E0,-2.011816406E-1,3.748205566E-1,9.765243073E0,9.774504426E0
3.602840667E0,-2.204914856E-1,3.489244080E-1,9.761650543E0,9.770372872E0
3.612872667E0,-2.341131592E-1,3.444337463E-1,9.753866730E0,9.762753698E0
3.622903667E0,-2.513273621E-1,3.357518005E-1,9.756860504E0,9.765870243E0
3.632934667E0,-2.633024597E-1,3.365002441E-1,9.730365601E0,9.739742056E0
3.642966667E0,-2.510279846E-1,3.219804382E-1,9.702523499E0,9.711109550E0
3.652997667E0,-2.454895020E-1,3.182382202E-1,9.784403229E0,9.792654758E0
3.663029667E0,-1.863624573E-1,3.348536682E-1,9.951156464E0,9.958532668E0
3.673060667E0,-1.318757629E-1,3.481759644E-1,9.968969421E0,9.975919459E0
3.683091667E0,-1.669029236E-1,3.797602844E-1,9.801168365E0,9.809942701E0
3.693123667E0,-2.203417969E-1,4.068539429E-1,9.650880890E0,9.661965773E0
3.703154667E0,-2.887495422E-1,4.227209473E-1,9.576036530E0,9.589710366E0
3.713186667E0,-3.110531616E-1,4.152365112E-1,9.676477661E0,9.690376430E0
3.723217667E0,-2.637515259E-1,3.848497009E-1,9.856852570E0,9.867888160E0
3.733248667E0,-1.782792664E-1,3.451821899E-1,9.946815491E0,9.954399663E0
3.743280667E0,-1.130149841E-1,3.490740967E-1,9.945917358E0,9.952682915E0
3.753311667E0,-9.310638428E-2,3.595523071E-1,9.873468018E0,9.880451273E0
3.763342667E0,-1.306782532E-1,3.830534363E-1,9.807754669E0,9.816101996E0
3.773374667E0,-2.065704346E-1,3.903881836E-1,9.813293152E0,9.823227411E0
3.783405917E0,-2.490820312E-1,3.890409851E-1,9.862989807E0,9.873801835E0
3.793437917E0,-2.525248718E-1,4.031117249E-1,9.885143738E0,9.896581965E0
3.803468917E0,-2.065704346E-1,4.475692749E-1,9.870174866E0,9.882476485E0
3.813499917E0,-1.781295776E-1,4.860392761E-1,9.842931519E0,9.856534137E0
3.823531917E0,-1.389111328E-1,4.965174866E-1,9.840835876E0,9.854332888E0
3.833562917E0,-1.160087585E-1,4.821473694E-1,9.833800507E0,9.846296589E0
3.843594917E0,-1.378633118E-1,4.447251892E-1,9.861792297E0,9.872777426E0
3.853625917E0,-1.556762695E-1,4.089495850E-1,9.850865021E0,9.860578914E0
3.863656917E0,-1.838177490E-1,3.956272888E-1,9.855355682E0,9.865006110E0
3.873688917E0,-1.974394226E-1,3.990701294E-1,9.873468018E0,9.883501909E0
3.883719917E0,-2.200424194E-1,3.954776001E-1,9.871222687E0,9.881591903E0
3.893751917E0,-2.415975952E-1,3.948788452E-1,9.891430664E0,9.902257282E0
3.903782917E0,-2.165995789E-1,4.001179504E-1,9.871372375E0,9.881852171E0
3.913813917E0,-2.083666992E-1,4.209246826E-1,9.851763153E0,9.862952473E0
3.923845917E0,-1.957928467E-1,4.351451111E-1,9.830806732E0,9.842380155E0
3.933876917E0,-2.014810181E-1,4.390370178E-1,9.830507355E0,9.842368767E0
3.943908917E0,-1.966909790E-1,4.441264343E-1,9.826914825E0,9.838912065E0
3.953939917E0,-2.149530029E-1,4.393363953E-1,9.858050079E0,9.870175917E0
3.963970917E0,-2.233355713E-1,4.255650330E-1,9.843230896E0,9.854957070E0
3.974002917E0,-2.409988403E-1,4.119433594E-1,9.792187042E0,9.803810731E0
3.984033917E0,-2.607577515E-1,4.273612976E-1,9.811197510E0,9.823961974E0
3.994065917E0,-2.688409424E-1,4.340972900E-1,9.795629883E0,9.808928622E0
4.004096917E0,-2.477348328E-1,4.092489624E-1,9.796827393E0,9.808500610E0
4.014127917E0,-1.913021851E-1,3.986210632E-1,9.820478210E0,9.830426621E0
4.024159917E0,-1.663041687E-1,3.924838257E-1,9.852960663E0,9.862176963E0
4.034190917E0,-1.371148682E-1,4.005670166E-1,9.855505371E0,9.864595306E0
4.044222917E0,-1.401086426E-1,4.013154602E-1,9.821675720E0,9.830869671E0
4.054253917E0,-1.733395386E-1,4.026626587E-1,9.828860779E0,9.838632426E0
4.064284917E0,-2.040257263E-1,3.927832031E-1,9.868827667E0,9.878748133E0
4.074316917E0,-2.326162720E-1,3.963757324E-1,9.896819458E0,9.907485021E0
4.084347917E0,-2.412982178E-1,4.137396240E-1,9.901459808E0,9.913037458E0
4.094379917E0,-2.201921082E-1,4.270619202E-1,9.880653076E0,9.892328930E0
4.104410917E0,-2.163002014E-1,4.507127380E-1,9.861193542E0,9.873857698E0
4.114441917E0,-1.923500061E-1,4.534071350E-1,9.859397278E0,9.871691407E0
4.124473917E0,-1.733395386E-1,4.561015320E-1,9.871072998E0,9.883124877E0
4.134504917E0,-1.736389160E-1,4.444258118E-1,9.897268524E0,9.908763243E0
4.144536917E0,-1.779798889E-1,4.349954224E-1,9.883197784E0,9.894366898E0
4.154567917E0,-1.868115234E-1,4.215234375E-1,9.862989807E0,9.873760605E0
4.164598917E0,-2.143542480E-1,4.059558105E-1,9.853709106E0,9.864397144E0
4.174630917E0,-2.143542480E-1,4.116439819E-1,9.842931519E0,9.853867230E0
4.184661917E0,-2.216889954E-1,3.936813354E-1,9.841434631E0,9.851800171E0
4.194692917E0,-2.160008240E-1,3.911366272E-1,9.828561401E0,9.838712489E0
4.204724917E0,-2.215393066E-1,3.926335144E-1,9.820627899E0,9.830970098E0
4.214755917E0,-2.257305908E-1,4.016148376E-1,9.815987549E0,9.826792983E0
4.224787917E0,-2.151026917E-1,4.043092346E-1,9.797126770E0,9.807824839E0
4.234818917E0,-2.086660767E-1,4.102967834E-1,9.834848328E0,9.845614588E0
4.244849917E0,-2.294728088E-1,4.089495850E-1,9.855655060E0,9.866804660E0
4.254881917E0,-2.254312134E-1,4.086502075E-1,9.858199768E0,9.869240948E0
4.264912917E0,-2.321672058E-1,4.146377563E-1,9.858648834E0,9.870095385E0
4.274944917E0,-2.239343262E-1,4.179309082E-1,9.844578094E0,9.855989584E0
4.284975917E0,-2.451901245E-1,4.073030090E-1,9.856104126E0,9.867563148E0
4.295006917E0,-2.384541321E-1,4.165837097E-1,9.860445099E0,9.872121348E0
4.305038917E0,-2.335144043E-1,4.227209473E-1,9.879904633E0,9.891700436E0
4.315069917E0,-2.285746765E-1,4.293072510E-1,9.863139496E0,9.875123888E0
4.325101917E0,-2.314187622E-1,4.182302856E-1,9.841135254E0,9.852736386E0
4.335132917E0,-2.245330811E-1,4.173321533E-1,9.841584320E0,9.852987525E0
4.345163917E0,-2.092648315E-1,4.149371338E-1,9.856104126E0,9.867053924E0
4.355195917E0,-2.016307068E-1,4.083508301E-1,9.871372375E0,9.881872187E0
4.365226917E0,-2.095642090E-1,4.131408691E-1,9.856553192E0,9.867433474E0
4.375258917E0,-2.339634705E-1,4.071533203E-1,9.843829651E0,9.855023842E0
4.385289917E0,-2.314187622E-1,4.113446045E-1,9.860145721E0,9.871435188E0
4.395320917E0,-2.320175171E-1,4.159849548E-1,9.877060547E0,9.888538854E0
4.405352917E0,-2.212399292E-1,4.266128540E-1,9.890083466E0,9.901752198E0
4.415383917E0,-2.098635864E-1,4.456233215E-1,9.845476227E0,9.857790067E0
4.425415917E0,-2.091151428E-1,4.378395081E-1,9.802814941E0,9.814816012E0
4.435446917E0,-2.085163879E-1,4.411326599E-1,9.774972839E0,9.787143154E0
4.445477917E0,-2.351609802E-1,4.381388855E-1,9.775721283E0,9.788360076E0
4.455509917E0,-2.372566223E-1,4.147874451E-1,9.820927277E0,9.832545545E0
4.465540917E0,-2.314187622E-1,4.008663940E-1,9.871671753E0,9.882517478E0
4.475572917E0,-2.306703186E-1,4.061054993E-1,9.853858795E0,9.864920863E0
4.485603917E0,-2.451901245E-1,4.182302856E-1,9.759704590E0,9.771738251E0
4.495634917E0,-2.351609802E-1,4.049079895E-1,9.804461517E0,9.815636343E0
4.505666917E0,-1.883084106E-1,4.004173279E-1,9.940079498E0,9.949923343E0
4.515697917E0,-1.502874756E-1,4.019142151E-1,1.007464966E1,1.008378337E1
4.525728917E0,-1.535806274E-1,4.105961609E-1,9.983189850E0,9.992810205E0
4.535760917E0,-2.161505127E-1,4.293072510E-1,9.765841827E0,9.777662929E0
4.545791917E0,-2.848576355E-1,4.345463562E-1,9.626930695E0,9.640942330E0
4.555823917E0,-3.049159241E-1,4.174818420E-1,9.679172058E0,9.692968407E0
4.565854917E0,-2.619552612E-1,3.893403625E-1,9.831854553E0,9.843046806E0
4.575885917E0,-2.061213684E-1,3.751199341E-1,9.970017242E0,9.979200609E0
4.585917917E0,-1.565744019E-1,3.806584167E-1,9.968969421E0,9.977462989E0
4.595948917E0,-1.463955688E-1,4.047583008E-1,9.883497162E0,9.892864959E0
4.605980917E0,-1.799258423E-1,4.320016479E-1,9.793683929E0,9.804858165E0
4.616011917E0,-2.234852600E-1,4.505630493E-1,9.782606964E0,9.795527129E0
4.626042917E0,-2.719844055E-1,4.541555786E-1,9.814790039E0,9.829055718E0
4.636074917E0,-2.754272461E-1,4.760101318E-1,9.850865021E0,9.866204309E0
4.646105917E0,-2.423460388E-1,5.005590820E-1,9.872420197E0,9.888072185E0
4.656137917E0,-1.963916016E-1,5.278024292E-1,9.871671753E0,9.887722097E0
4.666168917E0,-1.854643250E-1,5.269042969E-1,9.863438873E0,9.879243471E0
4.676199917E0,-1.667532349E-1,5.206173706E-1,9.877060547E0,9.892177421E0
4.686231917E0,-2.052232361E-1,4.616400146E-1,9.871821442E0,9.884740090E0
4.696262917E0,-2.282752991E-1,4.212240601E-1,9.854756927E0,9.866396172E0
4.706294917E0,-2.495310974E-1,4.058061218E-1,9.848619690E0,9.860134592E0
4.716325917E0,-2.637515259E-1,3.968247986E-1,9.837991791E0,9.849523707E0
4.726356917E0,-2.689906311E-1,3.802093506E-1,9.811796265E0,9.822843837E0
4.736388917E0,-2.639012146E-1,3.662882996E-1,9.836794281E0,9.847148455E0
4.746419917E0,-2.447410583E-1,3.707789612E-1,9.839039612E0,9.849064712E0
4.756451917E0,-2.106120300E-1,3.830534363E-1,9.820627899E0,9.830351962E0
4.766482917E0,-1.987866211E-1,3.833528137E-1,9.840835876E0,9.850305896E0
4.776513167E0,-1.923500061E-1,3.906875610E-1,9.843679962E0,9.853307591E0
4.786545167E0,-1.978884888E-1,4.028123474E-1,9.850865021E0,9.861083069E0
4.796576167E0,-2.050735474E-1,4.213737488E-1,9.881551208E0,9.892657140E0
4.806608167E0,-2.100132751E-1,4.266128540E-1,9.890083466E0,9.901507716E0
4.816639167E0,-2.261796570E-1,4.360432434E-1,9.815688171E0,9.827971572E0
4.826670167E0,-2.484832764E-1,4.411326599E-1,9.758058014E0,9.771184072E0
4.836702167E0,-2.832110596E-1,4.628375244E-1,9.763147430E0,9.778214296E0
4.846733167E0,-2.658471680E-1,4.751119995E-1,9.837093658E0,9.852147876E0
4.856765167E0,-2.035766602E-1,4.644841003E-1,9.905800781E0,9.918774020E0
4.866796167E0,-1.520837402E-1,4.441264343E-1,9.926308136E0,9.937402627E0
4.876827167E0,-1.556762695E-1,4.432283020E-1,9.869127045E0,9.880301364E0
4.886859167E0,-1.910028076E-1,4.191284180E-1,9.811496887E0,9.822302269E0
4.896890167E0,-2.068698120E-1,4.267625427E-1,9.818831635E0,9.830278534E0
4.906922167E0,-2.411485291E-1,4.153862000E-1,9.853409729E0,9.865109305E0
4.916953167E0,-2.543211365E-1,4.155358887E-1,9.884245605E0,9.896244768E0
4.926984167E0,-2.573149109E-1,4.255650330E-1,9.905351715E0,9.917827845E0
4.937016167E0,-2.459385681E-1,4.483177185E-1,9.884095917E0,9.897314113E0
4.947047167E0,-2.293231201E-1,4.619393921E-1,9.851014709E0,9.864505457E0
4.957079167E0,-2.192939758E-1,4.595443726E-1,9.827363892E0,9.840546323E0
4.967110167E0,-2.242337036E-1,4.516108704E-1,9.841584320E0,9.854492126E0
4.977141167E0,-2.185455322E-1,4.357438660E-1,9.860594788E0,9.872637157E0
4.987173167E0,-2.222877502E-1,4.185296631E-1,9.869725800E0,9.881096411E0
4.997204167E0,-2.308200073E-1,3.930825806E-1,9.831555176E0,9.842117098E0
5.007235167E0,-2.303709412E-1,3.867956543E-1,9.831854553E0,9.842156553E0
5.017267167E0,-2.347119141E-1,3.796105957E-1,9.838291168E0,9.848409364E0
5.027298167E0,-2.333647156E-1,3.754193115E-1,9.834698639E0,9.844627777E0
5.037330167E0,-2.362088013E-1,3.888912964E-1,9.823621674E0,9.834153437E0
5.047361167E0,-2.383044434E-1,3.848497009E-1,9.806557159E0,9.816998606E0
5.057392167E0,-2.435435486E-1,3.933819580E-1,9.785301361E0,9.796233233E0
5.067424167E0,-2.453398132E-1,3.885919189E-1,9.804461517E0,9.815225975E0
5.077455167E0,-2.377056885E-1,3.854484558E-1,9.831704865E0,9.842128583E0
5.087487167E0,-2.255809021E-1,3.960763550E-1,9.851463776E0,9.862002928E0
5.097518167E0,-2.242337036E-1,4.162843323E-1,9.878407745E0,9.889717538E0
5.107549167E0,-2.071691895E-1,4.264631653E-1,9.880802765E0,9.892171308E0
5.117581167E0,-2.182461548E-1,4.254153442E-1,9.868079224E0,9.879655721E0
5.127612167E0,-2.284249878E-1,4.312532043E-1,9.867480469E0,9.879540885E0
5.137644167E0,-2.378553772E-1,4.438270569E-1,9.842482452E0,9.855354812E0
5.147675167E0,-2.451901245E-1,4.480183411E-1,9.833800507E0,9.847053927E0
5.157706167E0,-2.694396973E-1,4.436773682E-1,9.847871246E0,9.861542245E0
5.167738167E0,-2.698887634E-1,4.432283020E-1,9.815239105E0,9.828947551E0
5.177769167E0,-2.592608643E-1,4.355941772E-1,9.814790039E0,9.827871692E0
5.187801167E0,-2.625540161E-1,4.270619202E-1,9.834249573E0,9.847018897E0
5.197832167E0,-2.356100464E-1,4.243675232E-1,9.823322296E0,9.835306849E0
5.207863167E0,-2.210902405E-1,4.246669006E-1,9.821526031E0,9.833188519E0
5.217895167E0,-2.110610962E-1,4.068539429E-1,9.819580078E0,9.830271096E0
5.227926167E0,-2.163002014E-1,3.977229309E-1,9.827363892E0,9.837786863E0
5.237958167E0,-2.046244812E-1,4.156855774E-1,9.854158173E0,9.865044296E0
5.247989167E0,-2.134561157E-1,4.073030090E-1,9.839488678E0,9.850228256E0
5.258020167E0,-2.408491516E-1,4.087998962E-1,9.793234863E0,9.804722064E0
5.268052167E0,-2.670446777E-1,4.176315308E-1,9.801018677E0,9.813546559E0
5.278083167E0,-2.650987244E-1,4.203259277E-1,9.823921051E0,9.836481893E0
5.288115167E0,-2.513273621E-1,4.227209473E-1,9.870324554E0,9.882568758E0
5.298146167E0,-2.267784119E-1,4.363426208E-1,9.899663544E0,9.911869733E0
5.308177167E0,-2.285746765E-1,4.367916870E-1,9.886940002E0,9.899222998E0
5.318209167E0,-2.342628479E-1,4.257147217E-1,9.822274475E0,9.834286348E0
5.328240167E0,-2.490820312E-1,4.137396240E-1,9.767488403E0,9.779419821E0
5.338272167E0,-2.637515259E-1,3.761677551E-1,9.765093384E0,9.775894631E0
5.348303167E0,-2.697390747E-1,3.796105957E-1,9.828561401E0,9.839587521E0
5.358334167E0,-2.520758057E-1,3.570075989E-1,9.878407745E0,9.888070399E0
5.368366167E0,-2.558180237E-1,3.644920349E-1,9.851164398E0,9.861223925E0
5.378397167E0,-2.706372070E-1,3.939807129E-1,9.842931519E0,9.854530236E0
5.388428167E0,-2.650987244E-1,3.969744873E-1,9.877808990E0,9.889336506E0
5.398460167E0,-2.454895020E-1,4.120930481E-1,9.987530823E0,9.999042840E0
5.408491167E0,-2.173480225E-1,3.963757324E-1,1.012120285E1,1.013129316E1
5.418523167E0,-1.859133911E-1,3.866459656E-1,1.003393433E1,1.004310196E1
5.428554167E0,-2.342628479E-1,3.966751099E-1,9.811347198E0,9.822156793E0
5.438585167E0,-3.071612549E-1,3.857478333E-1,9.715995483E0,9.728500278E0
5.448617167E0,-3.192860413E-1,3.661386108E-1,9.729766846E0,9.741887083E0
5.458648167E0,-2.543211365E-1,3.387455750E-1,9.849817200E0,9.858921172E0
5.468680167E0,-2.050735474E-1,3.339555359E-1,9.942025452E0,9.949746305E0
5.478711167E0,-1.652563477E-1,3.558100891E-1,9.923464050E0,9.931215899E0
5.488742167E0,-1.736389160E-1,3.963757324E-1,9.847422180E0,9.856925879E0
5.498774167E0,-2.142045593E-1,4.311035156E-1,9.775272217E0,9.787118102E0
5.508805167E0,-2.576142883E-1,4.635859680E-1,9.757459259E0,9.771862067E0
5.518837167E0,-3.040177917E-1,4.637356567E-1,9.811047821E0,9.826705293E0
5.528868167E0,-2.891986084E-1,4.559518433E-1,9.843530273E0,9.858327250E0
5.538899167E0,-2.484832764E-1,4.409829712E-1,9.879904633E0,9.892862350E0
5.548931167E0,-2.258802795E-1,4.382885742E-1,9.888436890E0,9.900722342E0
5.558962167E0,-2.061213684E-1,4.108955383E-1,9.923014984E0,9.933657309E0
5.568994167E0,-2.046244812E-1,3.788621521E-1,9.955347748E0,9.964655362E0
5.579025167E0,-2.233355713E-1,3.390449524E-1,9.942474518E0,9.950760262E0
5.589056167E0,-2.580633545E-1,3.138972473E-1,9.921817474E0,9.930135456E0
5.599088167E0,-2.854563904E-1,2.856060791E-1,9.882149963E0,9.890396558E0
5.609119167E0,-3.092568970E-1,2.818638611E-1,9.828711090E0,9.837613977E0
5.619151167E0,-3.144960022E-1,2.794688416E-1,9.797575836E0,9.806605062E0
5.629182167E0,-2.844085693E-1,3.004252625E-1,9.747430115E0,9.756205072E0
5.639213167E0,-2.498304749E-1,3.174897766E-1,9.741592255E0,9.749965881E0
5.649245167E0,-2.412982178E-1,3.049159241E-1,9.762548676E0,9.770289412E0
5.659276167E0,-2.177970886E-1,3.225791931E-1,9.800270233E0,9.807996205E0
5.669308167E0,-2.112107849E-1,3.191363525E-1,9.820927277E0,9.828380873E0
5.679339167E0,-2.119592285E-1,3.198847961E-1,9.863438873E0,9.870900638E0
5.689370167E0,-2.281256104E-1,3.447331238E-1,9.918075256E0,9.926686205E0
5.699402167E0,-2.353106689E-1,3.565585327E-1,9.901459808E0,9.910671594E0
5.709433167E0,-2.607577515E-1,3.915856934E-1,9.851763153E0,9.862989972E0
5.719465167E0,-2.954855347E-1,4.314028931E-1,9.844578094E0,9.858455154E0
5.729496167E0,-2.975811768E-1,4.384382629E-1,9.828561401E0,9.842835053E0
5.739527167E0,-2.850073242E-1,4.290078735E-1,9.844727783E0,9.858191622E0
5.749559167E0,-2.306703186E-1,4.020639038E-1,9.894723816E0,9.905575378E0
5.759590167E0,-2.121089172E-1,3.746708679E-1,9.897717590E0,9.907077367E0
5.769622167E0,-2.133064270E-1,3.597019958E-1,9.864486694E0,9.873347097E0
5.779653917E0,-2.171983337E-1,3.704795837E-1,9.856553192E0,9.865904473E0
5.789684917E0,-2.360591125E-1,3.585044861E-1,9.875563660E0,9.884887808E0
5.799716917E0,-2.453398132E-1,3.510200500E-1,9.877060547E0,9.886340665E0
5.809747917E0,-2.618055725E-1,3.752696228E-1,9.880353699E0,9.890943264E0
5.819779917E0,-2.457888794E-1,3.679348755E-1,9.865085449E0,9.875003755E0
5.829810917E0,-2.201921082E-1,3.567082214E-1,9.842482452E0,9.851405288E0
5.839841917E0,-2.163002014E-1,3.670367432E-1,9.850865021E0,9.860073195E0
5.849873917E0,-2.306703186E-1,3.610491943E-1,9.836345215E0,9.845671765E0
5.859904917E0,-2.436932373E-1,3.573069763E-1,9.837093658E0,9.846596687E0
5.869936917E0,-2.505789185E-1,3.365002441E-1,9.867630157E0,9.876545304E0
5.879967917E0,-2.695893860E-1,3.228785706E-1,9.869127045E0,9.878086739E0
5.889998917E0,-2.642005920E-1,3.025209045E-1,9.865684204E0,9.873856676E0
5.900030917E0,-2.788700867E-1,3.056643677E-1,9.871222687E0,9.879890514E0
5.910061917E0,-2.650987244E-1,3.010240173E-1,9.842781830E0,9.850951575E0
5.920093917E0,-2.706372070E-1,2.781216431E-1,9.815089417E0,9.822758085E0
5.930124917E0,-2.568658447E-1,2.808160400E-1,9.805060272E0,9.812443358E0
5.940155917E0,-2.595602417E-1,2.817141724E-1,9.818681946E0,9.826151309E0
5.950187917E0,-2.398013306E-1,2.767744446E-1,9.804012451E0,9.810849551E0
5.960218917E0,-2.402503967E-1,2.972817993E-1,9.825567627E0,9.832999335E0
5.970249917E0,-2.577639771E-1,3.068618774E-1,9.844877472E0,9.853030951E0
5.980281917E0,-2.504292297E-1,3.306623840E-1,9.837243347E0,9.845984414E0
5.990312917E0,-2.514770508E-1,3.523672485E-1,9.855205994E0,9.864709249E0
6.000344917E0,-2.704875183E-1,3.604504395E-1,9.859846344E0,9.870139712E0
6.010375917E0,-2.639012146E-1,3.686833191E-1,9.860295410E0,9.870714099E0
6.020407917E0,-2.516267395E-1,3.689826965E-1,9.850266266E0,9.860385883E0
6.030438917E0,-2.401007080E-1,3.959266663E-1,9.837991791E0,9.848882614E0
6.040469917E0,-2.347119141E-1,4.095483398E-1,9.849218445E0,9.860523490E0
6.050501917E0,-2.324665833E-1,3.929328918E-1,9.843530273E0,9.854112097E0
6.060532917E0,-2.383044434E-1,4.034111023E-1,9.837243347E0,9.848395108E0
6.070563917E0,-2.490820312E-1,3.903881836E-1,9.862540741E0,9.873406436E0
6.080595917E0,-2.359094238E-1,3.643423462E-1,9.857750702E0,9.867301936E0
6.090626917E0,-2.510279846E-1,3.540138245E-1,9.845925293E0,9.855485057E0
6.100658917E0,-2.495310974E-1,3.321592712E-1,9.842482452E0,9.851246438E0
6.110689917E0,-2.409988403E-1,3.330574036E-1,9.843679962E0,9.852260800E0
6.120720917E0,-2.463876343E-1,3.242257690E-1,9.847272491E0,9.855688953E0
6.130752917E0,-2.302212524E-1,3.388952637E-1,9.860145721E0,9.868653681E0
6.140783917E0,-2.103126526E-1,3.424877930E-1,9.862091675E0,9.870277681E0
6.150815917E0,-1.869612122E-1,3.439846802E-1,9.847721558E0,9.855500993E0
6.160846917E0,-2.095642090E-1,3.573069763E-1,9.837093658E0,9.845811144E0
6.170877917E0,-2.029779053E-1,3.381468201E-1,9.833351440E0,9.841257229E0
6.180909917E0,-2.296224976E-1,3.347039795E-1,9.834998016E0,9.843370318E0
6.190940917E0,-2.405497742E-1,3.113525391E-1,9.864187317E0,9.872030998E0
6.200972917E0,-2.230361938E-1,3.064128113E-1,9.863588562E0,9.870866896E0
6.211003917E0,-2.335144043E-1,3.162922668E-1,9.824220428E0,9.832084052E0
6.221034917E0,-2.227368164E-1,3.421884155E-1,9.804311829E0,9.812809742E0
6.231066917E0,-2.140548706E-1,3.270698547E-1,9.797276459E0,9.805071146E0
6.241097917E0,-2.335144043E-1,3.379971313E-1,9.818681946E0,9.827272571E0
6.251129917E0,-2.008822632E-1,3.246748352E-1,9.976753235E0,9.984055916E0
6.261160917E0,-1.567240906E-1,3.179388428E-1,1.001821701E1,1.002448600E1
6.271191917E0,-1.968406677E-1,3.439846802E-1,9.837692413E0,9.845672335E0
6.281223917E0,-2.668949890E-1,3.409909058E-1,9.746831360E0,9.756445525E0
6.291254917E0,-2.968327332E-1,3.424877930E-1,9.767787781E0,9.778296666E0
6.301286917E0,-2.612068176E-1,3.415896606E-1,9.820927277E0,9.830336976E0
6.311317917E0,-2.384541321E-1,3.204835510E-1,9.894723816E0,9.902783925E0
6.321348917E0,-2.052232361E-1,3.341052246E-1,9.882748718E0,9.890524006E0
6.331380917E0,-1.763333130E-1,3.457809448E-1,9.817933502E0,9.825603094E0
6.341411917E0,-1.969903564E-1,3.826043701E-1,9.808652802E0,9.818088464E0
6.351443917E0,-2.213896179E-1,4.132905579E-1,9.814191284E0,9.825384115E0
6.361474917E0,-2.252815247E-1,4.336482239E-1,9.842183075E0,9.854307192E0
6.371505917E0,-2.333647156E-1,4.427792358E-1,9.850865021E0,9.863572081E0
6.381537917E0,-2.071691895E-1,4.385879517E-1,9.871821442E0,9.883730927E0
6.391568917E0,-1.968406677E-1,4.189787292E-1,9.889335022E0,9.900163463E0
6.401600917E0,-1.959425354E-1,3.826043701E-1,9.906848602E0,9.916170068E0
6.411631917E0,-1.904040527E-1,3.332070923E-1,9.912836151E0,9.920262155E0
6.421662917E0,-1.802252197E-1,3.296145630E-1,9.923314362E0,9.930422690E0
6.431694917E0,-2.023791504E-1,2.968327332E-1,9.895621948E0,9.902141220E0
6.441725917E0,-2.071691895E-1,3.038681030E-1,9.851763153E0,9.858625265E0
6.451757917E0,-2.387535095E-1,3.162922668E-1,9.815538483E0,9.823534992E0
6.461788917E0,-2.347119141E-1,3.311114502E-1,9.788145447E0,9.796556322E0
6.471819917E0,-2.210902405E-1,3.571572876E-1,9.784103851E0,9.793116480E0
6.481851917E0,-2.047741699E-1,3.522175598E-1,9.793833618E0,9.802304148E0
6.491882917E0,-1.893562317E-1,3.314108276E-1,9.783505096E0,9.790947906E0
6.501914917E0,-1.797761536E-1,3.254232788E-1,9.811197510E0,9.818238964E0
6.511945917E0,-1.803749084E-1,3.109034729E-1,9.848919067E0,9.855475781E0
6.521976917E0,-1.842668152E-1,3.183879089E-1,9.890382843E0,9.897221726E0
6.532008917E0,-1.868115234E-1,3.363505554E-1,9.881700897E0,9.889188180E0
6.542039917E0,-2.074685669E-1,3.730242920E-1,9.849667511E0,9.858911725E0
6.552071917E0,-2.222877502E-1,4.007167053E-1,9.839039612E0,9.849704879E0
6.562102917E0,-2.095642090E-1,4.176315308E-1,9.843530273E0,9.854614224E0
6.572133917E0,-1.790277100E-1,4.085005188E-1,9.824669495E0,9.834787963E0
6.582165917E0,-1.779798889E-1,3.957769775E-1,9.771080933E0,9.780712594E0
6.592196917E0,-1.712438965E-1,3.787124634E-1,9.781559143E0,9.790385430E0
6.602228917E0,-1.841171265E-1,3.673361206E-1,9.864486694E0,9.873040701E0
6.612259917E0,-1.757345581E-1,3.606001282E-1,9.929451599E0,9.937551215E0
6.622290917E0,-1.895059204E-1,3.820056152E-1,9.931696930E0,9.940847282E0
6.632322917E0,-1.916015625E-1,3.875440979E-1,9.902807007E0,9.912239313E0
6.642353917E0,-1.619631958E-1,3.944297791E-1,9.865235138E0,9.874445364E0
6.652385917E0,-1.616638184E-1,3.876937866E-1,9.846524048E0,9.855479567E0
6.662416917E0,-1.800755310E-1,3.808081055E-1,9.838889923E0,9.847903174E0
6.672447917E0,-1.686991882E-1,3.845503235E-1,9.828411713E0,9.837378470E0
6.682479917E0,-1.818717957E-1,3.667373657E-1,9.843230896E0,9.851739345E0
6.692510917E0,-1.862127686E-1,3.700305176E-1,9.848769379E0,9.857477165E0
6.702542917E0,-1.908531189E-1,3.424877930E-1,9.831555176E0,9.839369897E0
6.712573917E0,-1.809736633E-1,3.287164307E-1,9.842632141E0,9.849782405E0
6.722604917E0,-1.977388000E-1,3.261717224E-1,9.826914825E0,9.834314598E0
6.732636917E0,-2.131567383E-1,3.221301270E-1,9.842931519E0,9.850507829E0
6.742667917E0,-2.089654541E-1,3.275189209E-1,9.856553192E0,9.864206812E0
6.752699917E0,-2.070195007E-1,3.360511780E-1,9.861642609E0,9.869538105E0
6.762730917E0,-1.886077881E-1,3.218307495E-1,9.859247589E0,9.866301787E0
6.772761917E0,-1.694476318E-1,3.177891541E-1,9.853858795E0,9.860437901E0
6.782793292E0,-1.588197327E-1,3.272195435E-1,9.853260040E0,9.859971083E0
6.792824292E0,-1.586700439E-1,3.300636292E-1,9.844727783E0,9.851537104E0
6.802856292E0,-1.935475159E-1,3.363505554E-1,9.853559418E0,9.861197977E0
6.812887292E0,-2.053729248E-1,3.403921509E-1,9.849368134E0,9.857387965E0
6.822918292E0,-2.171983337E-1,3.359014893E-1,9.842332764E0,9.850457815E0
6.832950292E0,-2.222877502E-1,3.565585327E-1,9.845326538E0,9.854288431E0
6.842981292E0,-2.079176331E-1,3.565585327E-1,9.836794281E0,9.845449987E0
6.853013292E0,-2.052232361E-1,3.683839417E-1,9.832153931E0,9.841192724E0
6.863044292E0,-1.938468933E-1,3.665876770E-1,9.830507355E0,9.839249870E0
6.873075292E0,-1.993853760E-1,3.610491943E-1,9.840087433E0,9.848727417E0
6.883107292E0,-1.896556091E-1,3.607498169E-1,9.850715332E0,9.859143078E0
6.893138292E0,-2.137554932E-1,3.442840576E-1,9.835297394E0,9.843642504E0
6.903170292E0,-2.249821472E-1,3.517684937E-1,9.824519806E0,9.833389419E0
6.913201292E0,-2.339634705E-1,3.670367432E-1,9.853858795E0,9.863467343E0
6.923232292E0,-2.384541321E-1,3.697311401E-1,9.877060547E0,9.886854229E0
6.933264292E0,-2.107617188E-1,3.724255371E-1,9.901310120E0,9.910553131E0
6.943295292E0,-1.898052979E-1,3.841012573E-1,9.879156189E0,9.888442083E0
6.953327292E0,-1.749861145E-1,3.968247986E-1,9.834548950E0,9.844107025E0
6.963358292E0,-1.698966980E-1,3.845503235E-1,9.811047821E0,9.820051079E0
6.973389292E0,-1.775308228E-1,3.668870544E-1,9.818681946E0,9.827137857E0
6.983421292E0,-1.802252197E-1,3.381468201E-1,9.846524048E0,9.853976874E0
6.993452292E0,-1.722917175E-1,3.234773254E-1,9.873617706E0,9.880417432E0
7.003484292E0,-1.874102783E-1,3.266207886E-1,9.881102142E0,9.888275042E0
7.013515292E0,-1.959425354E-1,3.391946411E-1,9.856253815E0,9.864034963E0
7.023546292E0,-2.133064270E-1,3.121009827E-1,9.783355408E0,9.790656244E0
7.033578292E0,-2.266287231E-1,3.147953796E-1,9.805808716E0,9.813477532E0
7.043609292E0,-1.842668152E-1,3.173400879E-1,9.944121094E0,9.950889574E0
7.053640292E0,-1.372645569E-1,3.336561584E-1,1.003094055E1,1.003742678E1
7.063672292E0,-1.287322998E-1,3.472778320E-1,9.894574127E0,9.901503475E0
7.073703292E0,-1.821711731E-1,3.838018799E-1,9.723330231E0,9.732607102E0
7.083735292E0,-2.459385681E-1,3.905378723E-1,9.661658478E0,9.672675439E0
7.093766292E0,-2.537223816E-1,3.718267822E-1,9.742939453E0,9.753332732E0
7.103798292E0,-2.354603577E-1,3.514691162E-1,9.876910858E0,9.885966833E0
7.113829292E0,-1.724414062E-1,3.478765869E-1,9.942773895E0,9.950352099E0
7.123860292E0,-1.255888367E-1,3.629951477E-1,9.910590820E0,9.918031480E0
7.133892292E0,-1.240919495E-1,3.820056152E-1,9.864037628E0,9.872211780E0
7.143923292E0,-1.609153748E-1,4.002676392E-1,9.853110352E0,9.862549951E0
7.153954292E0,-2.035766602E-1,4.311035156E-1,9.896520081E0,9.907996942E0
7.163986292E0,-2.302212524E-1,4.183799744E-1,9.900112610E0,9.911623142E0
7.174017292E0,-2.284249878E-1,4.520599365E-1,9.880054321E0,9.893028331E0
7.184049292E0,-1.935475159E-1,4.650828552E-1,9.869276733E0,9.882124566E0
7.194080292E0,-1.727407837E-1,4.571493530E-1,9.862840118E0,9.874940005E0
7.204112292E0,-1.643582153E-1,4.438270569E-1,9.867630157E0,9.878973682E0
7.214143292E0,-1.502874756E-1,4.140390015E-1,9.868378601E0,9.878203826E0
7.224174292E0,-1.543290710E-1,3.844006348E-1,9.864935760E0,9.873628455E0
7.234206292E0,-1.772314453E-1,3.457809448E-1,9.854906616E0,9.862563554E0
7.244237292E0,-1.820214844E-1,3.341052246E-1,9.826765137E0,9.834127881E0
7.254268292E0,-2.020797729E-1,3.218307495E-1,9.806407471E0,9.813767816E0
7.264300292E0,-2.148033142E-1,3.261717224E-1,9.807305603E0,9.815078790E0
7.274331292E0,-2.163002014E-1,3.396437073E-1,9.804012451E0,9.812278215E0
7.284363292E0,-2.040257263E-1,3.532653809E-1,9.797426147E0,9.805915666E0
7.294394292E0,-1.945953369E-1,3.492237854E-1,9.791139221E0,9.799297518E0
7.304425292E0,-1.857637024E-1,3.579057312E-1,9.792336731E0,9.800635863E0
7.314457292E0,-1.790277100E-1,3.695814514E-1,9.817634125E0,9.826219068E0
7.324488292E0,-1.764830017E-1,3.787124634E-1,9.840237122E0,9.849103309E0
7.334520292E0,-1.734892273E-1,3.734733582E-1,9.831854553E0,9.840474827E0
7.344551292E0,-1.811233521E-1,3.878434753E-1,9.815239105E0,9.824568536E0
7.354582292E0,-2.200424194E-1,4.207749939E-1,9.796228638E0,9.807729900E0
7.364614292E0,-2.448907471E-1,4.605921936E-1,9.816885681E0,9.830735533E0
7.374645292E0,-2.131567383E-1,4.766088867E-1,9.809850311E0,9.823734267E0
7.384677292E0,-1.685494995E-1,4.599934387E-1,9.757309570E0,9.769600450E0
7.394708292E0,-1.643582153E-1,4.532574463E-1,9.777068481E0,9.788949077E0
7.404739292E0,-1.550775146E-1,4.379891968E-1,9.821226654E0,9.832211174E0
7.414771292E0,-1.263372803E-1,4.320016479E-1,9.845925293E0,9.856207760E0
7.424802292E0,-1.462458801E-1,4.120930481E-1,9.867480469E0,9.877164539E0
7.434834292E0,-1.767823792E-1,3.945794678E-1,9.876162415E0,9.885622338E0
7.444865292E0,-1.957928467E-1,4.013154602E-1,9.869276733E0,9.879373066E0
7.454896292E0,-2.155517578E-1,4.143383789E-1,9.862241364E0,9.873294464E0
7.464928292E0,-2.151026917E-1,4.375401306E-1,9.831704865E0,9.843786420E0
7.474959292E0,-1.926493835E-1,4.559518433E-1,9.845027161E0,9.857462435E0
7.484991292E0,-1.806742859E-1,4.507127380E-1,9.849218445E0,9.861180920E0
7.495022292E0,-1.654060364E-1,4.496649170E-1,9.877659302E0,9.889272520E0
7.505053292E0,-1.565744019E-1,4.538562012E-1,9.882299652E0,9.893955094E0
7.515085292E0,-1.468446350E-1,4.436773682E-1,9.864187317E0,9.875252117E0
7.525116292E0,-1.673519897E-1,4.267625427E-1,9.841734009E0,9.852403831E0
7.535148292E0,-1.926493835E-1,4.134402466E-1,9.835746460E0,9.846316826E0
7.545179292E0,-2.091151428E-1,4.055067444E-1,9.848470001E0,9.859032723E0
7.555210292E0,-2.038760376E-1,3.963757324E-1,9.867480469E0,9.877542709E0
7.565242292E0,-2.050735474E-1,3.942800903E-1,9.853709106E0,9.863726228E0
7.575273292E0,-2.128573608E-1,4.073030090E-1,9.813891907E0,9.824646475E0
7.585305292E0,-2.183958435E-1,4.218228149E-1,9.810898132E0,9.822390411E0
7.595336292E0,-2.254312134E-1,4.165837097E-1,9.802515564E0,9.813952955E0
7.605367292E0,-2.019300842E-1,4.150868225E-1,9.831106110E0,9.841936810E0
7.615399292E0,-1.817221069E-1,4.203259277E-1,9.866432648E0,9.877053711E0
7.625430292E0,-1.848655701E-1,4.354444885E-1,9.872120819E0,9.883448621E0
7.635462292E0,-1.823208618E-1,4.369413757E-1,9.877659302E0,9.888999542E0
7.645493292E0,-1.877096558E-1,4.270619202E-1,9.857002258E0,9.868034775E0
7.655524292E0,-2.133064270E-1,4.273612976E-1,9.840686188E0,9.852270904E0
7.665556292E0,-2.408491516E-1,4.290078735E-1,9.854457550E0,9.866731459E0
7.675587292E0,-2.342628479E-1,4.328997803E-1,9.854307861E0,9.866593370E0
7.685619292E0,-2.401007080E-1,4.373904419E-1,9.854607239E0,9.867230745E0
7.695650292E0,-2.245330811E-1,4.320016479E-1,9.840237122E0,9.852274211E0
7.705681292E0,-2.124082947E-1,4.311035156E-1,9.859397278E0,9.871103394E0
7.715713292E0,-2.106120300E-1,4.291575623E-1,9.860445099E0,9.872026701E0
7.725744292E0,-1.901046753E-1,4.302053833E-1,9.845625916E0,9.856853764E0
7.735776292E0,-2.260299683E-1,4.159849548E-1,9.853409729E0,9.864776547E0
7.745807292E0,-2.243833923E-1,4.218228149E-1,9.867031403E0,9.878592566E0
7.755838292E0,-2.110610962E-1,4.255650330E-1,9.880802765E0,9.892214902E0
7.765870292E0,-1.980381775E-1,4.311035156E-1,9.886790314E0,9.898166096E0
7.775901292E0,-1.836680603E-1,4.562512207E-1,9.853858795E0,9.866125495E0
7.785933375E0,-2.004331970E-1,4.586462402E-1,9.818681946E0,9.831431482E0
7.795964375E0,-2.163002014E-1,4.577481079E-1,9.774374084E0,9.787477093E0
7.805995375E0,-2.336640930E-1,4.336482239E-1,9.785600739E0,9.797991197E0
7.816027375E0,-2.393522644E-1,4.320016479E-1,9.838440857E0,9.850829073E0
7.826058375E0,-2.309696960E-1,4.243675232E-1,9.876312103E0,9.888122954E0
7.836090375E0,-2.357597351E-1,4.258644104E-1,9.866881714E0,9.878881410E0
7.846121375E0,-2.327659607E-1,4.171824646E-1,9.785001984E0,9.796656829E0
7.856152375E0,-2.561174011E-1,4.080514526E-1,9.784403229E0,9.796256870E0
7.866184375E0,-2.291734314E-1,4.131408691E-1,9.891580353E0,9.902856543E0
7.876215375E0,-1.889071655E-1,4.239184570E-1,1.002944366E1,1.004017594E1
7.886247375E0,-1.547781372E-1,4.143383789E-1,1.000654129E1,1.001631175E1
7.896278375E0,-2.004331970E-1,4.415817261E-1,9.814790039E0,9.826763017E0
7.906309375E0,-2.692900085E-1,4.321513367E-1,9.651629333E0,9.665051509E0
7.916341375E0,-2.950364685E-1,4.125421143E-1,9.688602448E0,9.701868629E0
7.926372375E0,-2.586621094E-1,4.050576782E-1,9.809850311E0,9.821616004E0
7.936404375E0,-2.005828857E-1,3.879931641E-1,9.945617981E0,9.955204127E0
7.946435375E0,-1.694476318E-1,3.754193115E-1,9.961634674E0,9.970146315E0
7.956466375E0,-1.625619507E-1,3.995191956E-1,9.894125061E0,9.903522237E0
7.966498375E0,-1.935475159E-1,4.330494690E-1,9.819430389E0,9.830880208E0
7.976529375E0,-2.303709412E-1,4.558021545E-1,9.796378326E0,9.809681681E0
7.986561375E0,-2.555186462E-1,4.825964355E-1,9.809700623E0,9.824887552E0
7.996592375E0,-2.634521484E-1,4.858895874E-1,9.853858795E0,9.869347946E0
8.006623375E0,-2.404000854E-1,5.046006775E-1,9.869576111E0,9.885390567E0
8.016655375E0,-2.133064270E-1,5.370831299E-1,9.878258057E0,9.895147303E0
8.026686375E0,-1.737886047E-1,5.381309509E-1,9.874964905E0,9.891143476E0
8.036718375E0,-1.725910950E-1,5.134323120E-1,9.869127045E0,9.883980425E0
8.046749375E0,-2.052232361E-1,4.652325439E-1,9.865833893E0,9.878928904E0
8.056780375E0,-2.212399292E-1,4.225712585E-1,9.867031403E0,9.878553653E0
8.066812375E0,-2.284249878E-1,4.092489624E-1,9.857900391E0,9.869035556E0
8.076843375E0,-2.462379456E-1,3.785627747E-1,9.847122803E0,9.857472820E0
8.086875375E0,-2.576142883E-1,3.788621521E-1,9.821226654E0,9.831906969E0
8.096906375E0,-2.670446777E-1,3.773652649E-1,9.811347198E0,9.822232498E0
8.106937375E0,-2.523751831E-1,4.002676392E-1,9.825567627E0,9.836955149E0
8.116969375E0,-2.427951050E-1,4.056564331E-1,9.835596771E0,9.846952343E0
8.127000375E0,-2.218386841E-1,4.093986511E-1,9.826465759E0,9.837492006E0
8.137032375E0,-2.165995789E-1,4.164340210E-1,9.834848328E0,9.846043586E0
8.147063375E0,-2.116598511E-1,4.311035156E-1,9.843979340E0,9.855687666E0
8.157094375E0,-2.197430420E-1,4.480183411E-1,9.873168640E0,9.885770907E0
8.167126375E0,-2.291734314E-1,4.572990417E-1,9.886191559E0,9.899415458E0
8.177157375E0,-2.406994629E-1,4.569996643E-1,9.804461517E0,9.818057372E0
8.187188375E0,-2.847079468E-1,4.647834778E-1,9.744136963E0,9.759369214E0
8.197220375E0,-2.877017212E-1,4.837939453E-1,9.776918793E0,9.793108288E0
8.207251375E0,-2.553689575E-1,4.773573303E-1,9.866432648E0,9.881274033E0
8.217283375E0,-2.107617188E-1,4.596940613E-1,9.923164673E0,9.936042283E0
8.227314375E0,-1.787283325E-1,4.610412598E-1,9.914482727E0,9.926805660E0
8.237346375E0,-1.639091492E-1,4.590953064E-1,9.865235138E0,9.877271842E0
8.247377375E0,-1.902543640E-1,4.507127380E-1,9.814790039E0,9.826975232E0
8.257408375E0,-2.176473999E-1,4.375401306E-1,9.820478210E0,9.832629559E0
8.267440375E0,-2.284249878E-1,4.161346436E-1,9.854756927E0,9.866183665E0
8.277471375E0,-2.495310974E-1,4.231700134E-1,9.871072998E0,9.883289977E0
8.287503375E0,-2.502795410E-1,4.390370178E-1,9.886191559E0,9.899099802E0
8.297534375E0,-2.493814087E-1,4.673281860E-1,9.854307861E0,9.868534346E0
8.307565375E0,-2.448907471E-1,4.740641785E-1,9.842931519E0,9.857383487E0
8.317597375E0,-2.258802795E-1,4.631369019E-1,9.842183075E0,9.855662604E0
8.327628375E0,-2.088157654E-1,4.532574463E-1,9.847571869E0,9.860208824E0
8.337660375E0,-2.246827698E-1,4.351451111E-1,9.869875488E0,9.882017798E0
8.347691375E0,-2.139051819E-1,4.137396240E-1,9.852361908E0,9.863365099E0
8.357722375E0,-2.341131592E-1,3.977229309E-1,9.863438873E0,9.874230041E0
8.367754375E0,-2.252815247E-1,3.915856934E-1,9.843530273E0,9.853891585E0
8.377785375E0,-2.326162720E-1,3.968247986E-1,9.850116577E0,9.860850716E0
8.387816375E0,-2.415975952E-1,4.029620361E-1,9.827363892E0,9.838588764E0
8.397848375E0,-2.408491516E-1,4.143383789E-1,9.828262024E0,9.839939991E0
8.407879375E0,-2.411485291E-1,4.192781067E-1,9.813891907E0,9.825803840E0
8.417911375E0,-2.483335876E-1,4.201762390E-1,9.786349182E0,9.798512538E0
8.427942375E0,-2.577639771E-1,4.231700134E-1,9.800719299E0,9.813236669E0
8.437973375E0,-2.659968567E-1,4.140390015E-1,9.817634125E0,9.829960449E0
8.448005375E0,-2.568658447E-1,4.231700134E-1,9.872120819E0,9.884524389E0
8.458036375E0,-2.484832764E-1,4.363426208E-1,9.880054321E0,9.892806084E0
8.468068375E0,-2.353106689E-1,4.323010254E-1,9.874216461E0,9.886475915E0
8.478099375E0,-2.381547546E-1,4.450245667E-1,9.875114594E0,9.888005501E0
8.488130375E0,-2.395019531E-1,4.471202087E-1,9.865235138E0,9.878266143E0
8.498162375E0,-2.474354553E-1,4.456233215E-1,9.828860779E0,9.842068312E0
8.508193375E0,-2.636018372E-1,4.469705200E-1,9.827812958E0,9.841502736E0
8.518225375E0,-2.642005920E-1,4.343966675E-1,9.846673737E0,9.859791382E0
8.528256375E0,-2.658471680E-1,4.281097412E-1,9.841584320E0,9.854477896E0
8.538287375E0,-2.652484131E-1,4.242178345E-1,9.832902374E0,9.845622712E0
8.548319375E0,-2.652484131E-1,4.201762390E-1,9.816137238E0,9.828705665E0
8.558350375E0,-2.751278687E-1,4.065545654E-1,9.833800507E0,9.846045621E0
8.568382375E0,-2.436932373E-1,4.056564331E-1,9.868378601E0,9.879718607E0
8.578413375E0,-2.258802795E-1,4.251159668E-1,9.915530548E0,9.927209655E0
8.588444375E0,-2.011816406E-1,4.334985352E-1,9.903555450E0,9.915079707E0
8.598476375E0,-1.975891113E-1,4.496649170E-1,9.844129028E0,9.856374400E0
8.608507375E0,-2.318678284E-1,4.403842163E-1,9.773475952E0,9.786139849E0
8.618539375E0,-2.636018372E-1,4.318519592E-1,9.771080933E0,9.784171127E0
8.628570375E0,-2.812651062E-1,4.074526978E-1,9.797126770E0,9.809628979E0
8.638601375E0,-2.897973633E-1,3.905378723E-1,9.858499146E0,9.870486702E0
8.648633375E0,-2.719844055E-1,3.954776001E-1,9.883646851E0,9.895294494E0
8.658664375E0,-2.670446777E-1,3.965254211E-1,9.792935486E0,9.804597427E0
8.668696375E0,-2.673440552E-1,3.948788452E-1,9.789792023E0,9.801399390E0
8.678727375E0,-2.526745605E-1,3.983216858E-1,9.919272766E0,9.930482204E0
8.688758375E0,-1.877096558E-1,4.138893127E-1,1.006102798E1,1.007128708E1
8.698790375E0,-1.586700439E-1,4.200265503E-1,1.007629623E1,1.008629487E1
8.708821375E0,-1.814227295E-1,4.457730103E-1,9.840386810E0,9.852149022E0
8.718853375E0,-3.014730835E-1,4.406835938E-1,9.614506531E0,9.629321050E0
8.728884375E0,-3.541635132E-1,4.375401306E-1,9.602232056E0,9.618717878E0
8.738915375E0,-3.260220337E-1,4.079017639E-1,9.750573578E0,9.764546037E0
8.748947375E0,-2.622546387E-1,3.915856934E-1,9.951156464E0,9.962310566E0
8.758978375E0,-1.971400452E-1,3.962260437E-1,9.995614014E0,1.000540648E1
8.769010375E0,-1.522334290E-1,3.954776001E-1,9.909542999E0,9.918599700E0
8.779040917E0,-1.785786438E-1,4.243675232E-1,9.811496887E0,9.822293484E0
8.789071917E0,-2.362088013E-1,4.294569397E-1,9.774074707E0,9.786356025E0
8.799103917E0,-3.035687256E-1,4.284091187E-1,9.810299377E0,9.824340294E0
8.809134917E0,-3.291654968E-1,4.441264343E-1,9.865085449E0,9.880562187E0
8.819166917E0,-2.932402039E-1,4.773573303E-1,9.880802765E0,9.896672325E0
8.829197917E0,-2.511776733E-1,5.059478760E-1,9.861343231E0,9.877507975E0
8.839228917E0,-2.116598511E-1,5.047503662E-1,9.854008484E0,9.869197334E0
8.849260917E0,-2.028282166E-1,4.971162415E-1,9.852661285E0,9.867279171E0
8.859291917E0,-2.258802795E-1,4.517605591E-1,9.872270508E0,9.885182572E0
8.869323917E0,-2.409988403E-1,3.993695068E-1,9.877659302E0,9.888666731E0
8.879354917E0,-2.484832764E-1,3.715274048E-1,9.876312103E0,9.886420855E0
8.889385917E0,-2.531236267E-1,3.784130859E-1,9.853260040E0,9.863772172E0
8.899417917E0,-2.881507874E-1,3.769161987E-1,9.817334747E0,9.828792308E0
8.909448917E0,-3.032693481E-1,3.941304016E-1,9.806407471E0,9.819009041E0
8.919480917E0,-3.059637451E-1,3.881428528E-1,9.812395020E0,9.824834080E0
8.929511917E0,-2.874023438E-1,3.981719971E-1,9.821226654E0,9.833495515E0
8.939542917E0,-2.534230042E-1,3.936813354E-1,9.826166382E0,9.837314368E0
8.949574917E0,-2.216889954E-1,4.062551880E-1,9.817933502E0,9.828835513E0
8.959605917E0,-2.125579834E-1,4.049079895E-1,9.833650818E0,9.844278530E0
8.969636917E0,-2.279759216E-1,4.361929321E-1,9.828561401E0,9.840876816E0
8.979668917E0,-2.396516418E-1,4.477189636E-1,9.852212219E0,9.865291217E0
8.989699917E0,-2.592608643E-1,4.519102478E-1,9.792037354E0,9.805887752E0
8.999731917E0,-2.950364685E-1,4.746629333E-1,9.766889648E0,9.782866902E0
9.009762917E0,-3.119512939E-1,5.013075256E-1,9.762698364E0,9.780536907E0
9.019793917E0,-2.920426941E-1,4.956193542E-1,9.790839844E0,9.807725135E0
9.029825917E0,-2.472857666E-1,4.944218445E-1,9.892777863E0,9.908211597E0
9.039856917E0,-2.086660767E-1,4.584965515E-1,9.933942261E0,9.946706463E0
9.049888917E0,-1.851649475E-1,4.384382629E-1,9.959988098E0,9.971352821E0
9.059919917E0,-2.061213684E-1,4.010160828E-1,9.943971405E0,9.954188426E0
9.069950917E0,-2.260299683E-1,3.826043701E-1,9.926308136E0,9.936250241E0
9.079982917E0,-2.534230042E-1,3.736230469E-1,9.922416229E0,9.932681472E0
9.090013917E0,-2.764750671E-1,3.676354980E-1,9.923014984E0,9.933671058E0
9.100045917E0,-2.881507874E-1,3.727249146E-1,9.889484711E0,9.900700106E0
9.110076917E0,-2.718347168E-1,4.061054993E-1,9.850116577E0,9.862231612E0
9.120107917E0,-2.451901245E-1,4.451742554E-1,9.819580078E0,9.832723490E0
9.130139917E0,-2.374063110E-1,4.665797424E-1,9.789193268E0,9.803181282E0
9.140170917E0,-2.384541321E-1,4.540058899E-1,9.797875214E0,9.811286380E0
9.150202917E0,-2.203417969E-1,4.444258118E-1,9.821825409E0,9.834343861E0
9.160233917E0,-2.252815247E-1,4.114942932E-1,9.819879456E0,9.831078875E0
9.170264917E0,-2.460882568E-1,4.011657715E-1,9.837991791E0,9.849242401E0
9.180296917E0,-2.668949890E-1,3.909869385E-1,9.838590546E0,9.849972977E0
9.190327917E0,-2.743794250E-1,3.899391174E-1,9.824370117E0,9.835933346E0
9.200359917E0,-2.597099304E-1,4.008663940E-1,9.822424164E0,9.834030688E0
9.210390917E0,-2.637515259E-1,4.123924255E-1,9.820777588E0,9.832970294E0
9.220421917E0,-2.592608643E-1,4.254153442E-1,9.847721558E0,9.860315121E0
9.230453917E0,-2.535726929E-1,4.165837097E-1,9.848320312E0,9.860388130E0
9.240484917E0,-2.409988403E-1,4.111949158E-1,9.832453308E0,9.843998159E0
9.250516917E0,-2.535726929E-1,3.965254211E-1,9.812395020E0,9.823676885E0
9.260547917E0,-2.583627319E-1,3.752696228E-1,9.840087433E0,9.850629385E0
9.270578917E0,-2.673440552E-1,3.643423462E-1,9.865534515E0,9.875879174E0
9.280610917E0,-2.588117981E-1,3.606001282E-1,9.877808990E0,9.887776618E0
9.290641917E0,-2.420466614E-1,3.652404785E-1,9.883497162E0,9.893204908E0
9.300673917E0,-2.483335876E-1,3.691323853E-1,9.866432648E0,9.876457942E0
9.310704917E0,-2.498304749E-1,3.799099731E-1,9.833351440E0,9.843858360E0
9.320735917E0,-2.597099304E-1,3.996688843E-1,9.804910583E0,9.816488986E0
9.330767917E0,-2.782713318E-1,4.016148376E-1,9.779014435E0,9.791213037E0
9.340798917E0,-2.700384521E-1,3.938310242E-1,9.797575836E0,9.809205672E0
9.350830917E0,-2.656974792E-1,3.950285339E-1,9.812544708E0,9.824086540E0
9.360861917E0,-2.715353394E-1,3.975732422E-1,9.830956421E0,9.842738444E0
9.370892917E0,-2.525248718E-1,3.911366272E-1,9.867480469E0,9.878457748E0
9.380924917E0,-2.528242493E-1,3.947291565E-1,9.861492920E0,9.872627503E0
9.390955917E0,-2.531236267E-1,3.882925415E-1,9.847571869E0,9.858474242E0
9.400987917E0,-2.674937439E-1,3.820056152E-1,9.876761169E0,9.887764782E0
9.411018917E0,-2.603086853E-1,3.966751099E-1,9.907447357E0,9.918801585E0
9.421049917E0,-2.585124207E-1,3.936813354E-1,9.929451599E0,9.940614806E0
9.431081917E0,-2.387535095E-1,3.938310242E-1,9.916428680E0,9.927117602E0
9.441112917E0,-2.490820312E-1,4.105961609E-1,9.855954437E0,9.867647589E0
9.451143917E0,-2.531236267E-1,4.206253052E-1,9.814340973E0,9.826611112E0
9.461175917E0,-2.513273621E-1,4.152365112E-1,9.816885681E0,9.828877417E0
9.471206917E0,-2.570155334E-1,4.020639038E-1,9.824819183E0,9.836400986E0
9.481238917E0,-2.520758057E-1,3.959266663E-1,9.858199768E0,9.869366890E0
9.491269917E0,-2.622546387E-1,3.721261597E-1,9.870623932E0,9.881116950E0
9.501300917E0,-2.592608643E-1,3.787124634E-1,9.847871246E0,9.858560108E0
9.511332917E0,-2.751278687E-1,3.685336304E-1,9.814640350E0,9.825409792E0
9.521363917E0,-2.990780640E-1,3.704795837E-1,9.851613464E0,9.863112625E0
9.531395917E0,-2.761756897E-1,3.535647583E-1,9.870174866E0,9.880366032E0
9.541426917E0,-2.387535095E-1,3.390449524E-1,9.989776154E0,9.998378984E0
9.551457917E0,-1.908531189E-1,3.379971313E-1,9.984836426E0,9.992378367E0
9.561489917E0,-1.980381775E-1,3.291654968E-1,9.789043579E0,9.796578139E0
9.571520917E0,-2.971321106E-1,3.246748352E-1,9.664652252E0,9.674668180E0
9.581552917E0,-3.465293884E-1,3.426374817E-1,9.719138947E0,9.731348567E0
9.591583917E0,-3.065625000E-1,3.564088440E-1,9.820328522E0,9.831574650E0
9.601614917E0,-2.493814087E-1,3.526666260E-1,9.941426697E0,9.950805475E0
9.611646917E0,-2.106120300E-1,3.490740967E-1,9.949210510E0,9.957559939E0
9.621677917E0,-2.020797729E-1,3.782633972E-1,9.852212219E0,9.861541717E0
9.631709917E0,-2.287243652E-1,4.005670166E-1,9.814041595E0,9.824875633E0
9.641740917E0,-2.872526550E-1,4.327500916E-1,9.812844086E0,9.826581083E0
9.651771917E0,-3.098556519E-1,4.578977966E-1,9.860894165E0,9.876381658E0
9.661803917E0,-3.143463135E-1,4.688250732E-1,9.873468018E0,9.889589539E0
9.671834917E0,-2.948867798E-1,4.668791199E-1,9.860445099E0,9.875895497E0
9.681866917E0,-2.456391907E-1,4.552033997E-1,9.848619690E0,9.862193394E0
9.691897917E0,-2.300715637E-1,4.162843323E-1,9.873617706E0,9.885067131E0
9.701928917E0,-2.082170105E-1,3.734733582E-1,9.906698914E0,9.915922551E0
9.711960917E0,-2.215393066E-1,3.360511780E-1,9.907896423E0,9.916068858E0
9.721991917E0,-2.176473999E-1,3.014730835E-1,9.893077240E0,9.900062307E0
9.732023917E0,-2.294728088E-1,3.068618774E-1,9.855954437E0,9.863400015E0
9.742054917E0,-2.547702026E-1,3.236270142E-1,9.815538483E0,9.824176200E0
9.752085917E0,-2.809657288E-1,3.489244080E-1,9.761051788E0,9.771326522E0
9.762117917E0,-2.884501648E-1,3.528163147E-1,9.735305328E0,9.745965970E0
9.772148917E0,-2.769241333E-1,3.490740967E-1,9.746531982E0,9.756711812E0
9.782181625E0,-2.588117981E-1,3.579057312E-1,9.786199493E0,9.796161523E0
9.792212625E0,-2.445913696E-1,3.441343689E-1,9.825118561E0,9.834185687E0
9.802243625E0,-2.151026917E-1,3.234773254E-1,9.865085449E0,9.872731014E0
9.812275625E0,-2.221380615E-1,3.415896606E-1,9.907447357E0,9.915822808E0
9.822306625E0,-2.213896179E-1,3.376977539E-1,9.915530548E0,9.923749250E0
9.832337625E0,-2.330653381E-1,3.591032410E-1,9.868528290E0,9.877809737E0
9.842369625E0,-2.820135498E-1,4.070036316E-1,9.854457550E0,9.866889946E0
9.852400625E0,-2.874023438E-1,4.370910645E-1,9.857451324E0,9.871321863E0
9.862432625E0,-2.544708252E-1,4.264631653E-1,9.849218445E0,9.861730589E0
9.872463625E0,-2.249821472E-1,4.016148376E-1,9.817484436E0,9.828271063E0
9.882494625E0,-2.239343262E-1,3.793112183E-1,9.799222412E0,9.809117364E0
9.892526625E0,-2.231858826E-1,3.709286499E-1,9.833501129E0,9.843025168E0
9.902557625E0,-2.160008240E-1,3.790118408E-1,9.894873505E0,9.904485247E0
9.912589625E0,-2.136058044E-1,3.899391174E-1,9.940079498E0,9.950018110E0
9.922620625E0,-2.421963501E-1,3.911366272E-1,9.946366425E0,9.957000150E0
9.932651625E0,-2.398013306E-1,3.920347595E-1,9.919572144E0,9.930211853E0
9.942683625E0,-2.387535095E-1,4.092489624E-1,9.867330780E0,9.878699544E0
9.952714625E0,-2.357597351E-1,4.053570557E-1,9.839788055E0,9.850955587E0
9.962746625E0,-2.299218750E-1,4.010160828E-1,9.829160156E0,9.840023747E0
9.972777625E0,-2.276765442E-1,3.926335144E-1,9.828112335E0,9.838586777E0
9.982808625E0,-2.149530029E-1,3.855981445E-1,9.829459534E0,9.839368143E0
9.992840625E0,-2.174977112E-1,3.664379883E-1,9.826914825E0,9.836149503E0
1.000287162E1,-2.017803955E-1,3.568579102E-1,9.846524048E0,9.855054476E0
1.001290362E1,-2.047741699E-1,3.447331238E-1,9.855954437E0,9.864107220E0
1.002293462E1,-2.210902405E-1,3.240760803E-1,9.848919067E0,9.856729325E0
1.003296562E1,-2.266287231E-1,3.318598938E-1,9.833650818E0,9.841858563E0
1.004299762E1,-2.279759216E-1,3.291654968E-1,9.794731750E0,9.802912476E0
1.005302862E1,-2.381547546E-1,3.314108276E-1,9.809251556E0,9.817737363E0
1.006306062E1,-2.302212524E-1,3.366499329E-1,9.821825409E0,9.830289384E0
1.007309163E1,-2.110610962E-1,3.282673645E-1,9.832602997E0,9.840344910E0
1.008312262E1,-2.103126526E-1,3.255729675E-1,9.836195526E0,9.843829113E0
1.009315462E1,-2.083666992E-1,3.288661194E-1,9.828411713E0,9.836119479E0
1.010318562E1,-2.089654541E-1,3.284170532E-1,9.826166382E0,9.833873605E0
1.011321762E1,-2.201921082E-1,3.302133179E-1,9.825717316E0,9.833730023E0
1.012324862E1,-2.386038208E-1,3.345542908E-1,9.816735992E0,9.825332763E0
1.013327962E1,-2.347119141E-1,3.505709839E-1,9.836195526E0,9.845239059E0
1.014331162E1,-2.212399292E-1,3.773652649E-1,9.852511597E0,9.862217621E0
1.015334262E1,-2.053729248E-1,3.760180664E-1,9.859397278E0,9.868702159E0
1.016337362E1,-2.013313293E-1,3.867956543E-1,9.869725800E0,9.879353852E0
1.017340562E1,-1.987866211E-1,3.719764709E-1,9.872719574E0,9.881724263E0
1.018343662E1,-2.095642090E-1,3.827540588E-1,9.860894165E0,9.870544644E0
1.019346862E1,-2.308200073E-1,3.775149536E-1,9.880653076E0,9.890556133E0
1.020349962E1,-2.306703186E-1,3.767665100E-1,9.882599030E0,9.892468114E0
1.021353062E1,-2.249821472E-1,3.757186890E-1,9.882449341E0,9.892147718E0
1.022356263E1,-2.106120300E-1,3.947291565E-1,9.884994049E0,9.895113738E0
1.023359362E1,-1.975891113E-1,4.158352661E-1,9.862091675E0,9.872832047E0
1.024362562E1,-1.908531189E-1,4.085005188E-1,9.820178833E0,9.830524396E0
1.025365662E1,-2.014810181E-1,4.008663940E-1,9.813742218E0,9.823992304E0
1.026368763E1,-2.053729248E-1,3.885919189E-1,9.818382568E0,9.828215401E0
1.027371962E1,-1.975891113E-1,3.707789612E-1,9.850715332E0,9.859670940E0
1.028375062E1,-1.990859985E-1,3.695814514E-1,9.874515839E0,9.883435067E0
1.029378262E1,-1.989363098E-1,3.341052246E-1,9.860295410E0,9.867959644E0
1.030381362E1,-2.055226135E-1,3.469784546E-1,9.855056305E0,9.863304130E0
1.031384462E1,-2.176473999E-1,3.385958862E-1,9.826615448E0,9.834855806E0
1.032387662E1,-2.137554932E-1,3.170407104E-1,9.843081207E0,9.850505260E0
1.033390762E1,-1.963916016E-1,3.170407104E-1,9.914333038E0,9.921344872E0
1.034393962E1,-1.351689148E-1,3.004252625E-1,1.001462448E1,1.002004139E1
1.035397062E1,-1.263372803E-1,3.088078308E-1,9.911339264E0,9.916953635E0
1.036400162E1,-1.827699280E-1,3.335064697E-1,9.740694122E0,9.748115377E0
1.037403363E1,-2.498304749E-1,3.441343689E-1,9.695188751E0,9.704510737E0
1.038406462E1,-2.677931213E-1,3.444337463E-1,9.774374084E0,9.784106321E0
1.039409662E1,-2.429447937E-1,3.308120728E-1,9.850266266E0,9.858813535E0
1.040412762E1,-2.279759216E-1,3.159928894E-1,9.878258057E0,9.885939852E0
1.041415863E1,-2.025288391E-1,3.224295044E-1,9.839638367E0,9.847002686E0
1.042419062E1,-1.916015625E-1,3.564088440E-1,9.806108093E0,9.814453340E0
1.043422162E1,-2.127076721E-1,3.950285339E-1,9.834848328E0,9.845076624E0
1.044425362E1,-2.249821472E-1,4.189787292E-1,9.864636383E0,9.876092907E0
1.045428462E1,-2.299218750E-1,4.357438660E-1,9.885742493E0,9.898011993E0
1.046431562E1,-1.989363098E-1,4.602928162E-1,9.866732025E0,9.879465876E0
1.047434762E1,-1.716929626E-1,4.516108704E-1,9.861193542E0,9.873022280E0
1.048437862E1,-1.672023010E-1,4.361929321E-1,9.887838135E0,9.898866797E0
1.049440962E1,-1.694476318E-1,3.884422302E-1,9.884544983E0,9.893625695E0
1.050444162E1,-1.975891113E-1,3.447331238E-1,9.876162415E0,9.884152286E0
1.051447262E1,-2.128573608E-1,2.977308655E-1,9.850116577E0,9.856913742E0
1.052450463E1,-2.333647156E-1,3.101550293E-1,9.839937744E0,9.847590063E0
1.053453562E1,-2.628533936E-1,3.260220337E-1,9.830357666E0,9.839274064E0
1.054456662E1,-2.552192688E-1,3.454815674E-1,9.805060272E0,9.814463884E0
1.055459862E1,-2.435435486E-1,3.613485718E-1,9.782606964E0,9.792307454E0
1.056462963E1,-2.281256104E-1,3.649411011E-1,9.780361633E0,9.789826198E0
1.057466162E1,-2.091151428E-1,3.495231628E-1,9.786947937E0,9.795419619E0
1.058469262E1,-1.887574768E-1,3.382965088E-1,9.829908600E0,9.837539174E0
1.059472362E1,-1.589694214E-1,3.138972473E-1,9.857900391E0,9.864177759E0
1.060475562E1,-1.725910950E-1,2.995271301E-1,9.887688446E0,9.893729681E0
1.061478662E1,-2.065704346E-1,3.240760803E-1,9.895023193E0,9.902483560E0
1.062481862E1,-2.288740540E-1,3.565585327E-1,9.858948212E0,9.868048295E0
1.063484962E1,-2.570155334E-1,3.867956543E-1,9.854457550E0,9.865394136E0
1.064488062E1,-2.568658447E-1,4.110452271E-1,9.858798523E0,9.870706487E0
1.065491262E1,-2.375559998E-1,4.255650330E-1,9.856403503E0,9.868446102E0
1.066494362E1,-1.872605896E-1,4.008663940E-1,9.814939728E0,9.824907239E0
1.067497563E1,-1.930984497E-1,3.947291565E-1,9.776170349E0,9.786041325E0
1.068500662E1,-2.073188782E-1,3.664379883E-1,9.800868988E0,9.809907789E0
1.069503762E1,-1.863624573E-1,3.559597778E-1,9.878856812E0,9.887024337E0
1.070506962E1,-1.990859985E-1,3.535647583E-1,9.915979614E0,9.924278059E0
1.071510063E1,-2.098635864E-1,3.854484558E-1,9.920021210E0,9.929724772E0
1.072513262E1,-2.019300842E-1,3.903881836E-1,9.869127045E0,9.878909217E0
1.073516362E1,-1.791773987E-1,4.058061218E-1,9.834998016E0,9.844997163E0
1.074519462E1,-1.987866211E-1,4.038601685E-1,9.822424164E0,9.832732866E0
1.075522662E1,-2.152523804E-1,3.760180664E-1,9.823471985E0,9.833022171E0
1.076525762E1,-2.272274780E-1,3.585044861E-1,9.852511597E0,9.861650093E0
1.077528962E1,-2.161505127E-1,3.333567810E-1,9.898765411E0,9.906735308E0
1.078532017E1,-2.053729248E-1,3.311114502E-1,9.919422455E0,9.927071807E0
1.079535117E1,-2.056723022E-1,3.405418396E-1,9.919123077E0,9.927097887E0
1.080538317E1,-2.043251038E-1,3.299139404E-1,9.887838135E0,9.895450214E0
1.081541417E1,-2.059716797E-1,3.162922668E-1,9.845176849E0,9.852409468E0
1.082544617E1,-2.260299683E-1,3.195854187E-1,9.824669495E0,9.832464343E0
1.083547717E1,-2.360591125E-1,3.236270142E-1,9.793983307E0,9.802171564E0
1.084550817E1,-2.188449097E-1,3.242257690E-1,9.791438599E0,9.799249220E0
1.085554017E1,-2.092648315E-1,3.535647583E-1,9.790690155E0,9.799306788E0
1.086557117E1,-2.094145203E-1,3.547622681E-1,9.808054047E0,9.816701834E0
1.087560217E1,-2.115101624E-1,3.616479492E-1,9.828411713E0,9.837337169E0
1.088563417E1,-2.171983337E-1,3.803590393E-1,9.834848328E0,9.844596982E0
1.089566517E1,-2.276765442E-1,3.815565491E-1,9.860594788E0,9.870600365E0
1.090569717E1,-2.396516418E-1,3.782633972E-1,9.851613464E0,9.861785029E0
1.091572817E1,-2.209405518E-1,3.875440979E-1,9.844578094E0,9.854680259E0
1.092575917E1,-2.314187622E-1,3.897894287E-1,9.839488678E0,9.849925273E0
1.093579117E1,-2.168989563E-1,3.860472107E-1,9.854008484E0,9.863952596E0
1.094582217E1,-2.004331970E-1,3.878434753E-1,9.874515839E0,9.884162032E0
1.095585417E1,-2.104623413E-1,3.752696228E-1,9.867480469E0,9.876856407E0
1.096588517E1,-2.245330811E-1,3.748205566E-1,9.844578094E0,9.854269299E0
1.097591617E1,-2.315684509E-1,3.668870544E-1,9.842632141E0,9.852189479E0
1.098594817E1,-2.317181396E-1,3.659889221E-1,9.863438873E0,9.872946247E0
1.099597917E1,-2.227368164E-1,3.731739807E-1,9.877509613E0,9.887065625E0
1.100601117E1,-2.001338196E-1,3.698808289E-1,9.868977356E0,9.877933965E0
1.101604217E1,-2.029779053E-1,3.748205566E-1,9.839638367E0,9.848866618E0
1.102607317E1,-1.975891113E-1,3.763174438E-1,9.830806732E0,9.839990715E0
1.103610517E1,-2.185455322E-1,3.742218018E-1,9.824370117E0,9.833923546E0
1.104613617E1,-2.127076721E-1,3.620970154E-1,9.827064514E0,9.836033538E0
1.105616817E1,-2.118095398E-1,3.483256531E-1,9.864187317E0,9.872607835E0
1.106619917E1,-2.167492676E-1,3.496728516E-1,9.891879730E0,9.900431099E0
1.107623017E1,-2.258802795E-1,3.480262756E-1,9.862241364E0,9.870964943E0
1.108626217E1,-2.323168945E-1,3.567082214E-1,9.820777588E0,9.829999203E0
1.109629317E1,-2.339634705E-1,3.347039795E-1,9.824669495E0,9.833152919E0
1.110632517E1,-2.207908630E-1,3.329077148E-1,9.964179382E0,9.972183658E0
1.111635617E1,-1.595681763E-1,3.278182983E-1,1.010817993E1,1.011475301E1
1.112638717E1,-1.318757629E-1,3.335064697E-1,1.003019211E1,1.003660159E1
1.113641917E1,-1.658551025E-1,3.483256531E-1,9.804012451E0,9.811600217E0
1.114645017E1,-2.392025757E-1,3.576063538E-1,9.674382019E0,9.683943805E0
1.115648117E1,-2.749781799E-1,3.700305176E-1,9.724976807E0,9.735897980E0
1.116651317E1,-2.668949890E-1,3.583547974E-1,9.813592529E0,9.823759435E0
1.117654417E1,-2.356100464E-1,3.396437073E-1,9.886041870E0,9.894680076E0
1.118657617E1,-2.091151428E-1,3.342549133E-1,9.858050079E0,9.865931626E0
1.119660717E1,-1.793270874E-1,3.603007507E-1,9.789193268E0,9.797462920E0
1.120663817E1,-2.037263489E-1,3.908372498E-1,9.782756653E0,9.792680221E0
1.121667017E1,-2.462379456E-1,4.108955383E-1,9.826765137E0,9.838433886E0
1.122670117E1,-2.523751831E-1,4.312532043E-1,9.879605255E0,9.892232941E0
1.123673317E1,-2.535726929E-1,4.680766296E-1,9.889484711E0,9.903802436E0
1.124676417E1,-2.368075562E-1,4.867877197E-1,9.872270508E0,9.887100944E0
1.125679517E1,-1.929487610E-1,5.113366699E-1,9.832902374E0,9.848079179E0
1.126682717E1,-1.733395386E-1,4.908293152E-1,9.831854553E0,9.845624610E0
1.127685817E1,-1.860630798E-1,4.523593140E-1,9.836794281E0,9.848947667E0
1.128689017E1,-2.001338196E-1,3.918850708E-1,9.839937744E0,9.849771686E0
1.129692117E1,-1.926493835E-1,3.477268982E-1,9.809700623E0,9.817751987E0
1.130695217E1,-2.157014465E-1,3.019221497E-1,9.783654785E0,9.790688691E0
1.131698417E1,-2.582130432E-1,2.802172852E-1,9.765991516E0,9.773422430E0
1.132701517E1,-2.716850281E-1,3.125500488E-1,9.764494629E0,9.773272515E0
1.133704717E1,-2.724334717E-1,3.134481812E-1,9.770931244E0,9.779752918E0
1.134707817E1,-2.600093079E-1,3.424877930E-1,9.769434357E0,9.778893106E0
1.135710917E1,-2.242337036E-1,3.583547974E-1,9.759704590E0,9.768855235E0
1.136714117E1,-1.953437805E-1,3.629951477E-1,9.777667236E0,9.786352807E0
1.137717217E1,-1.790277100E-1,3.616479492E-1,9.806557159E0,9.814856264E0
1.138720417E1,-1.829196167E-1,3.388952637E-1,9.837842102E0,9.845376926E0
1.139723517E1,-1.749861145E-1,3.194357300E-1,9.891879730E0,9.898582925E0
1.140726617E1,-1.901046753E-1,3.507206726E-1,9.879605255E0,9.887656182E0
1.141729817E1,-2.032772827E-1,3.873944092E-1,9.865684204E0,9.875379532E0
1.142732917E1,-2.019300842E-1,4.179309082E-1,9.920470276E0,9.931322797E0
1.143736117E1,-1.877096558E-1,4.357438660E-1,9.910590820E0,9.921941243E0
1.144739217E1,-1.426533508E-1,4.387376404E-1,9.856702881E0,9.867493723E0
1.145742317E1,-1.338217163E-1,4.315525818E-1,9.848170624E0,9.858529836E0
1.146745517E1,-1.065783691E-1,4.245172119E-1,9.889185333E0,9.898866620E0
1.147748617E1,-9.669891357E-2,4.266128540E-1,9.907147980E0,9.916800406E0
1.148751817E1,-1.210981750E-1,4.387376404E-1,9.910141754E0,9.920587940E0
1.149754917E1,-1.764830017E-1,4.382885742E-1,9.897867279E0,9.909138197E0
1.150758017E1,-2.098635864E-1,4.653822327E-1,9.866582336E0,9.879780886E0
1.151761217E1,-2.538720703E-1,4.778063965E-1,9.823022919E0,9.837912850E0
1.152764317E1,-2.549198914E-1,4.905299377E-1,9.821076965E0,9.836623228E0
1.153767517E1,-2.383044434E-1,4.840933228E-1,9.825567627E0,9.840371667E0
1.154770617E1,-2.288740540E-1,4.682263184E-1,9.828112335E0,9.841921118E0
1.155773717E1,-2.017803955E-1,4.429289246E-1,9.844129028E0,9.856154305E0
1.156776917E1,-1.935475159E-1,4.125421143E-1,9.852661285E0,9.863193501E0
1.157780017E1,-2.020797729E-1,3.858975220E-1,9.848769379E0,9.858398014E0
1.158783117E1,-2.173480225E-1,3.742218018E-1,9.856553192E0,9.866049004E0
1.159786317E1,-2.359094238E-1,3.562591553E-1,9.839638367E0,9.848911464E0
1.160789417E1,-2.682421875E-1,3.264710999E-1,9.813742218E0,9.822834294E0
1.161792617E1,-2.493814087E-1,3.287164307E-1,9.821526031E0,9.830189172E0
1.162795717E1,-2.493814087E-1,3.272195435E-1,9.833351440E0,9.841954291E0
1.163798817E1,-2.457888794E-1,3.143463135E-1,9.818382568E0,9.826487777E0
1.164802017E1,-2.402503967E-1,3.273692322E-1,9.821226654E0,9.829617686E0
1.165805117E1,-2.230361938E-1,3.305126953E-1,9.831555176E0,9.839637237E0
1.166808317E1,-2.031275940E-1,3.477268982E-1,9.863738251E0,9.871955586E0
1.167811417E1,-2.050735474E-1,3.656895447E-1,9.897717590E0,9.906593638E0
1.168814517E1,-1.999841309E-1,3.953279114E-1,9.901459808E0,9.911366412E0
1.169817717E1,-2.098635864E-1,4.243675232E-1,9.894274750E0,9.905594548E0
1.170820817E1,-2.071691895E-1,4.303550720E-1,9.866582336E0,9.878136037E0
1.171824017E1,-2.260299683E-1,4.549040222E-1,9.851912842E0,9.864999435E0
1.172827117E1,-2.167492676E-1,4.635859680E-1,9.841883698E0,9.855179700E0
1.173830217E1,-2.137554932E-1,4.623884583E-1,9.836644592E0,9.849825954E0
1.174833417E1,-2.130070496E-1,4.584965515E-1,9.831704865E0,9.844694593E0
1.175836517E1,-1.999841309E-1,4.643344116E-1,9.875264282E0,9.888197244E0
1.176839717E1,-1.887574768E-1,4.559518433E-1,9.878856812E0,9.891174519E0
1.177842817E1,-2.017803955E-1,4.607418823E-1,9.853559418E0,9.866388985E0
1.178845962E1,-2.212399292E-1,4.384382629E-1,9.844278717E0,9.856520617E0
1.179849162E1,-2.177970886E-1,4.315525818E-1,9.849368134E0,9.861223344E0
1.180852262E1,-2.206411743E-1,4.345463562E-1,9.877060547E0,9.889076707E0
1.181855462E1,-2.049238586E-1,4.252656555E-1,9.881401520E0,9.892671058E0
1.182858562E1,-1.962419128E-1,4.291575623E-1,9.855954437E0,9.867245055E0
1.183861662E1,-2.053729248E-1,4.203259277E-1,9.810598755E0,9.821746273E0
1.184864862E1,-2.149530029E-1,4.164340210E-1,9.778415680E0,9.789639181E0
1.185867962E1,-2.327659607E-1,3.793112183E-1,9.771979065E0,9.782107740E0
1.186871162E1,-2.592608643E-1,3.511697388E-1,9.812844086E0,9.822547808E0
1.187874263E1,-2.528242493E-1,3.359014893E-1,9.886490936E0,9.895425860E0
1.188877362E1,-2.344125366E-1,3.574566650E-1,9.874366150E0,9.883614287E0
1.189880562E1,-2.399510193E-1,3.623963928E-1,9.795779572E0,9.805417128E0
1.190883662E1,-2.418969727E-1,3.707789612E-1,9.797875214E0,9.807871833E0
1.191886763E1,-2.194436646E-1,3.806584167E-1,9.914782104E0,9.924513113E0
1.192889962E1,-1.604663086E-1,3.839515686E-1,1.006926086E1,1.007785605E1
1.193893062E1,-1.493893433E-1,4.073030090E-1,1.003872437E1,1.004809434E1
1.194896262E1,-1.865121460E-1,4.317022705E-1,9.809401245E0,9.820667310E0
1.195899362E1,-2.754272461E-1,4.436773682E-1,9.633666687E0,9.647810301E0
1.196902462E1,-3.125500488E-1,4.195774841E-1,9.653425598E0,9.667593215E0
1.197905662E1,-2.897973633E-1,4.108955383E-1,9.812395020E0,9.825269140E0
1.198908762E1,-2.444416809E-1,3.766168213E-1,9.955647125E0,9.965766486E0
1.199911962E1,-1.841171265E-1,3.800596619E-1,9.979447632E0,9.988379223E0
1.200915062E1,-1.549278259E-1,4.046086121E-1,9.889484711E0,9.898970583E0
1.201918162E1,-1.618135071E-1,4.269122314E-1,9.798773346E0,9.809403486E0
1.202921363E1,-2.026785278E-1,4.644841003E-1,9.789941711E0,9.803049667E0
1.203924462E1,-2.528242493E-1,4.748126221E-1,9.830806732E0,9.845513096E0
1.204927662E1,-2.541714478E-1,5.032534790E-1,9.862989807E0,9.879090805E0
1.205930762E1,-2.308200073E-1,5.095404053E-1,9.879305878E0,9.895129808E0
1.206933863E1,-1.681004333E-1,5.453160095E-1,9.857601013E0,9.874103759E0
1.207937062E1,-1.489402771E-1,5.292993164E-1,9.862391052E0,9.877707135E0
1.208940162E1,-1.678010559E-1,4.923262024E-1,9.873168640E0,9.886860031E0
1.209943363E1,-1.694476318E-1,4.308041382E-1,9.885443115E0,9.896276587E0
1.210946462E1,-2.031275940E-1,3.900888062E-1,9.870623932E0,9.880417344E0
1.211949562E1,-2.101629639E-1,3.498225403E-1,9.830507355E0,9.838974496E0
1.212952762E1,-2.107617188E-1,3.463796997E-1,9.833650818E0,9.842006290E0
1.213955863E1,-2.255809021E-1,3.517684937E-1,9.812095642E0,9.820990210E0
1.214959062E1,-2.329156494E-1,3.483256531E-1,9.818681946E0,9.827619021E0
1.215962162E1,-2.237846375E-1,3.577560425E-1,9.824819183E0,9.833877208E0
1.216965262E1,-2.161505127E-1,3.649411011E-1,9.831405487E0,9.840550640E0
1.217968462E1,-1.947450256E-1,3.692820740E-1,9.825867004E0,9.834732191E0
1.218971562E1,-1.826202393E-1,3.881428528E-1,9.836045837E0,9.845395002E0
1.219974762E1,-2.037263489E-1,4.146377563E-1,9.851613464E0,9.862439695E0
1.220977862E1,-1.999841309E-1,4.215234375E-1,9.874216461E0,9.885232743E0
1.221980963E1,-2.124082947E-1,4.240681458E-1,9.899064789E0,9.910420514E0
1.222984162E1,-2.200424194E-1,4.376898193E-1,9.829758911E0,9.841958712E0
1.223987262E1,-2.495310974E-1,4.715194702E-1,9.762099609E0,9.776665340E0
1.224990362E1,-2.734812927E-1,4.824467468E-1,9.770781555E0,9.786506991E0
1.225993562E1,-2.601589966E-1,4.899311829E-1,9.814640350E0,9.830304190E0
1.226996662E1,-2.052232361E-1,4.707710266E-1,9.877808990E0,9.891150206E0
1.227999862E1,-1.663041687E-1,4.728666687E-1,9.899513855E0,9.912196251E0
1.229002963E1,-1.582209778E-1,4.653822327E-1,9.856403503E0,9.868652619E0
1.230006062E1,-1.775308228E-1,4.540058899E-1,9.837692413E0,9.849762970E0
1.231009262E1,-2.029779053E-1,4.459226990E-1,9.819131012E0,9.831346851E0
1.232012362E1,-2.071691895E-1,4.266128540E-1,9.858199768E0,9.869600816E0
1.233015562E1,-2.113604736E-1,4.204756165E-1,9.882898407E0,9.894096923E0
1.234018662E1,-2.348616028E-1,4.331991577E-1,9.893975372E0,9.906238951E0
1.235021762E1,-2.264790344E-1,4.453239441E-1,9.874665527E0,9.887296165E0
1.236024962E1,-2.055226135E-1,4.511618042E-1,9.841284943E0,9.853764552E0
1.237028062E1,-2.023791504E-1,4.641847229E-1,9.831255798E0,9.844288463E0
1.238031262E1,-1.908531189E-1,4.475692749E-1,9.838141479E0,9.850166036E0
1.239034362E1,-1.787283325E-1,4.358935547E-1,9.852361908E0,9.863619121E0
1.240037462E1,-1.963916016E-1,4.216731262E-1,9.869127045E0,9.880083325E0
1.241040662E1,-1.980381775E-1,4.032614136E-1,9.851014709E0,9.861253962E0
1.242043762E1,-2.025288391E-1,4.002676392E-1,9.832004242E0,9.842232446E0
1.243046962E1,-2.230361938E-1,3.957769775E-1,9.831106110E0,9.841597020E0
1.244050063E1,-2.179467773E-1,3.894900513E-1,9.841584320E0,9.851699611E0
1.245053162E1,-2.091151428E-1,3.920347595E-1,9.831555176E0,9.841590195E0
1.246056362E1,-2.174977112E-1,4.044589233E-1,9.814340973E0,9.825079186E0
1.247059462E1,-2.219883728E-1,4.032614136E-1,9.805808716E0,9.816607519E0
1.248062662E1,-2.246827698E-1,4.134402466E-1,9.809101868E0,9.820381593E0
1.249065762E1,-2.317181396E-1,4.047583008E-1,9.821226654E0,9.832294522E0
1.250068862E1,-2.101629639E-1,4.016148376E-1,9.849966888E0,9.860390999E0
1.251072062E1,-2.177970886E-1,4.433779907E-1,9.879305878E0,9.891648206E0
1.252075162E1,-2.245330811E-1,4.498146057E-1,9.877210236E0,9.889996477E0
1.253078362E1,-2.092648315E-1,4.296066284E-1,9.885443115E0,9.896986370E0
1.254081462E1,-2.103126526E-1,4.456233215E-1,9.859696655E0,9.872002314E0
1.255084562E1,-2.192939758E-1,4.433779907E-1,9.855056305E0,9.867462119E0
1.256087762E1,-2.338137817E-1,4.577481079E-1,9.854307861E0,9.867704173E0
1.257090862E1,-2.320175171E-1,4.516108704E-1,9.838740234E0,9.851832008E0
1.258094062E1,-2.389031982E-1,4.517605591E-1,9.839039612E0,9.852302412E0
1.259097163E1,-2.387535095E-1,4.534071350E-1,9.842033386E0,9.855364146E0
1.260100262E1,-2.260299683E-1,4.457730103E-1,9.846973114E0,9.859649214E0
1.261103462E1,-2.203417969E-1,4.252656555E-1,9.828860779E0,9.840523644E0
1.262106562E1,-1.963916016E-1,4.221221924E-1,9.826016693E0,9.837040249E0
1.263109663E1,-1.924996948E-1,4.186793518E-1,9.861492920E0,9.872253600E0
1.264112862E1,-1.965412903E-1,4.137396240E-1,9.875863037E0,9.886479641E0
1.265115962E1,-2.043251038E-1,4.222718811E-1,9.861941986E0,9.873092830E0
1.266119162E1,-2.206411743E-1,4.150868225E-1,9.849817200E0,9.861028266E0
1.267122262E1,-2.311193848E-1,4.085005188E-1,9.827962646E0,9.839163512E0
1.268125362E1,-2.297721863E-1,4.034111023E-1,9.848919067E0,9.859855099E0
1.269128562E1,-2.269281006E-1,4.227209473E-1,9.881551208E0,9.893191783E0
1.270131662E1,-2.017803955E-1,4.478686523E-1,9.872270508E0,9.884484136E0
1.271134862E1,-2.029779053E-1,4.367916870E-1,9.837393036E0,9.849177060E0
1.272137962E1,-2.221380615E-1,4.552033997E-1,9.766290894E0,9.779416817E0
1.273141062E1,-2.366578674E-1,4.463717651E-1,9.761051788E0,9.774118206E0
1.274144263E1,-2.435435486E-1,4.308041382E-1,9.792785797E0,9.805282216E0
1.275147362E1,-2.353106689E-1,3.986210632E-1,9.881251831E0,9.892088132E0
1.276150562E1,-2.237846375E-1,4.041595459E-1,9.913434906E0,9.924193475E0
1.277153662E1,-2.224374390E-1,4.291575623E-1,9.848919067E0,9.860773875E0
1.278156763E1,-2.246827698E-1,4.326004028E-1,9.794132996E0,9.806256502E0
1.279159987E1,-2.174977112E-1,4.243675232E-1,9.888287201E0,9.899778625E0
1.280163087E1,-2.014810181E-1,4.342469788E-1,1.002375549E1,1.003518008E1
1.281166287E1,-1.435514832E-1,4.378395081E-1,1.008437943E1,1.009490064E1
1.282169387E1,-1.857637024E-1,4.561015320E-1,9.887389069E0,9.899646426E0
1.283172487E1,-2.769241333E-1,4.661306763E-1,9.650581512E0,9.665799931E0
1.284175687E1,-3.261717224E-1,4.556524658E-1,9.600585480E0,9.616925118E0
1.285178787E1,-2.915936279E-1,4.161346436E-1,9.741741943E0,9.754984930E0
1.286181987E1,-2.112107849E-1,3.803590393E-1,9.938432922E0,9.947951143E0
1.287185087E1,-1.511856079E-1,3.794609070E-1,1.002360580E1,1.003192509E1
1.288188187E1,-1.294807434E-1,3.963757324E-1,9.936786346E0,9.945531754E0
1.289191388E1,-1.555265808E-1,4.089495850E-1,9.813442841E0,9.823191369E0
1.290194487E1,-1.992356873E-1,4.448748779E-1,9.778864746E0,9.791006293E0
1.291197687E1,-2.640509033E-1,4.505630493E-1,9.811646576E0,9.825535022E0
1.292200787E1,-2.573149109E-1,4.623884583E-1,9.847871246E0,9.862077983E0
1.293203888E1,-2.526745605E-1,4.921765137E-1,9.878707123E0,9.894187009E0
1.294207087E1,-2.180964661E-1,5.161267090E-1,9.842632141E0,9.858567863E0
1.295210187E1,-1.893562317E-1,5.298980713E-1,9.840386810E0,9.856462871E0
1.296213388E1,-1.835183716E-1,5.101391602E-1,9.837991791E0,9.852918523E0
1.297216487E1,-2.076182556E-1,4.531077576E-1,9.863887939E0,9.876471904E0
1.298219587E1,-2.116598511E-1,4.144880676E-1,9.885443115E0,9.896392567E0
1.299222787E1,-2.137554932E-1,3.899391174E-1,9.876162415E0,9.886168518E0
1.300225887E1,-2.480342102E-1,3.841012573E-1,9.866582336E0,9.877170736E0
1.301229087E1,-2.501298523E-1,3.842509460E-1,9.846823425E0,9.857491836E0
1.302232187E1,-2.612068176E-1,3.878434753E-1,9.826615448E0,9.837734634E0
1.303235287E1,-2.683918762E-1,4.101470947E-1,9.811945953E0,9.824181301E0
1.304238487E1,-2.412982178E-1,3.870950317E-1,9.802066498E0,9.812674203E0
1.305241587E1,-2.203417969E-1,3.995191956E-1,9.829758911E0,9.840341780E0
1.306244687E1,-2.077679443E-1,4.034111023E-1,9.845176849E0,9.855628607E0
1.307247887E1,-1.884580994E-1,4.323010254E-1,9.844278717E0,9.855568177E0
1.308250988E1,-1.932481384E-1,4.213737488E-1,9.872420197E0,9.883298094E0
1.309254187E1,-1.983375549E-1,4.441264343E-1,9.895921326E0,9.907867831E0
1.310257287E1,-2.089654541E-1,4.601431274E-1,9.834698639E0,9.847674628E0
1.311260387E1,-2.406994629E-1,4.709207153E-1,9.767488403E0,9.781795963E0
1.312263587E1,-2.823129272E-1,4.869374084E-1,9.775122528E0,9.791313960E0
1.313266687E1,-2.607577515E-1,4.924758911E-1,9.761800232E0,9.777692513E0
1.314269887E1,-2.115101624E-1,4.933740234E-1,9.848619690E0,9.863238022E0
1.315272988E1,-1.640588379E-1,4.803511047E-1,9.895172882E0,9.908183428E0
1.316276087E1,-1.555265808E-1,4.580474854E-1,9.891730042E0,9.903550839E0
1.317279287E1,-1.713935852E-1,4.471202087E-1,9.839039612E0,9.850684886E0
1.318282387E1,-1.904040527E-1,4.343966675E-1,9.826316071E0,9.837755927E0
1.319285587E1,-2.329156494E-1,4.355941772E-1,9.838291168E0,9.850683484E0
1.320288687E1,-2.372566223E-1,4.361929321E-1,9.861343231E0,9.873836402E0
1.321291787E1,-2.348616028E-1,4.297563171E-1,9.895023193E0,9.907135533E0
1.322294987E1,-2.424957275E-1,4.442761230E-1,9.884395294E0,9.897345896E0
1.323298087E1,-2.164498901E-1,4.532574463E-1,9.858948212E0,9.871735040E0
1.324301287E1,-2.176473999E-1,4.572990417E-1,9.841284943E0,9.854307795E0
1.325304387E1,-2.026785278E-1,4.357438660E-1,9.818681946E0,9.830435721E0
1.326307487E1,-2.098635864E-1,4.221221924E-1,9.815987549E0,9.827300821E0
1.327310687E1,-2.230361938E-1,4.010160828E-1,9.828262024E0,9.838968109E0
1.328313787E1,-2.299218750E-1,3.965254211E-1,9.822424164E0,9.833113084E0
1.329316987E1,-2.383044434E-1,3.998185730E-1,9.837842102E0,9.848846690E0
1.330320088E1,-2.342628479E-1,3.882925415E-1,9.841734009E0,9.852176332E0
1.331323187E1,-2.306703186E-1,3.894900513E-1,9.845326538E0,9.855727570E0
1.332326387E1,-2.278262329E-1,3.918850708E-1,9.862391052E0,9.872802843E0
1.333329487E1,-2.182461548E-1,3.852987671E-1,9.879754944E0,9.889673618E0
1.334332687E1,-2.321672058E-1,3.808081055E-1,9.881551208E0,9.891611128E0
1.335335787E1,-2.197430420E-1,3.776646423E-1,9.881850586E0,9.891505881E0
1.336338887E1,-2.204914856E-1,3.791615295E-1,9.874515839E0,9.884252274E0
1.337342087E1,-2.176473999E-1,3.869453430E-1,9.889035645E0,9.898996064E0
1.338345187E1,-2.047741699E-1,3.851490784E-1,9.892777863E0,9.902389919E0
1.339348287E1,-2.137554932E-1,3.809577942E-1,9.879006500E0,9.888659651E0
1.340351487E1,-2.179467773E-1,3.921844482E-1,9.890831909E0,9.901003247E0
1.341354587E1,-2.139051819E-1,4.102967834E-1,9.898016968E0,9.908826306E0
1.342357787E1,-2.005828857E-1,4.260140991E-1,9.872569885E0,9.883792675E0
1.343360887E1,-2.164498901E-1,4.575984192E-1,9.838889923E0,9.851903460E0
1.344363987E1,-2.354603577E-1,4.703219604E-1,9.815688171E0,9.829770018E0
1.345367188E1,-2.519261169E-1,4.745132446E-1,9.811047821E0,9.825746228E0
1.346370287E1,-2.580633545E-1,4.748126221E-1,9.814191284E0,9.829058667E0
1.347373487E1,-2.763253784E-1,4.412823486E-1,9.837093658E0,9.850862778E0
1.348376587E1,-2.841091919E-1,4.114942932E-1,9.845925293E0,9.858615038E0
1.349379688E1,-2.649490356E-1,4.029620361E-1,9.852062531E0,9.863858905E0
1.350382887E1,-2.571652222E-1,3.932322693E-1,9.850266266E0,9.861465970E0
1.351385987E1,-2.357597351E-1,3.707789612E-1,9.880503387E0,9.890268292E0
1.352389187E1,-2.233355713E-1,3.832031250E-1,9.868378601E0,9.878340935E0
1.353392287E1,-2.094145203E-1,3.912863159E-1,9.851912842E0,9.861903775E0
1.354395387E1,-2.160008240E-1,3.733236694E-1,9.840386810E0,9.849834491E0
1.355398587E1,-2.200424194E-1,3.764671326E-1,9.827962646E0,9.837631623E0
1.356401687E1,-2.189945984E-1,3.685336304E-1,9.841434631E0,9.850767040E0
1.357404887E1,-2.303709412E-1,3.589535522E-1,9.839189301E0,9.848429546E0
1.358407987E1,-2.314187622E-1,3.529660034E-1,9.808802490E0,9.817878892E0
1.359411087E1,-2.308200073E-1,3.646417236E-1,9.803264008E0,9.812758362E0
1.360414288E1,-2.454895020E-1,3.589535522E-1,9.807455292E0,9.817091833E0
1.361417387E1,-2.618055725E-1,3.676354980E-1,9.843081207E0,9.853423043E0
1.362420587E1,-2.483335876E-1,3.838018799E-1,9.851763153E0,9.862363341E0
1.363423687E1,-2.504292297E-1,4.076023865E-1,9.842033386E0,9.853652910E0
1.364426788E1,-2.333647156E-1,4.089495850E-1,9.815239105E0,9.826526220E0
1.365429987E1,-2.324665833E-1,4.258644104E-1,9.835447083E0,9.847406792E0
1.366433087E1,-2.174977112E-1,4.215234375E-1,9.837842102E0,9.849270252E0
1.367436287E1,-2.341131592E-1,4.080514526E-1,9.881551208E0,9.892743262E0
1.368439387E1,-2.186952209E-1,3.965254211E-1,9.893675995E0,9.904033759E0
1.369442487E1,-2.260299683E-1,3.924838257E-1,9.864935760E0,9.875327370E0
1.370445687E1,-2.531236267E-1,4.116439819E-1,9.826615448E0,9.838490408E0
1.371448787E1,-2.718347168E-1,4.004173279E-1,9.815239105E0,9.827163723E0
1.372451987E1,-2.535726929E-1,3.927832031E-1,9.834998016E0,9.846103988E0
1.373455087E1,-2.109114075E-1,3.839515686E-1,9.924661560E0,9.934324814E0
1.374458187E1,-1.616638184E-1,3.730242920E-1,1.005249573E1,1.006071333E1
1.375461388E1,-1.474433899E-1,3.664379883E-1,9.909542999E0,9.917411901E0
1.376464487E1,-2.270777893E-1,3.775149536E-1,9.725575562E0,9.735548360E0
1.377467687E1,-2.844085693E-1,3.629951477E-1,9.721234589E0,9.732166030E0
1.378470725E1,-2.733316040E-1,3.671864319E-1,9.779014435E0,9.789722129E0
1.379473825E1,-2.302212524E-1,3.483256531E-1,9.876761169E0,9.885582622E0
1.380477025E1,-2.088157654E-1,3.495231628E-1,9.905651093E0,9.914015031E0
1.381480125E1,-1.938468933E-1,3.701802063E-1,9.830357666E0,9.839234820E0
1.382483225E1,-2.074685669E-1,4.055067444E-1,9.772428131E0,9.783037897E0
1.383486425E1,-2.639012146E-1,4.402345276E-1,9.790839844E0,9.804284530E0
1.384489525E1,-2.656974792E-1,4.517605591E-1,9.833950195E0,9.847906336E0
1.385492725E1,-2.659968567E-1,4.532574463E-1,9.853858795E0,9.867863487E0
1.386495825E1,-2.636018372E-1,4.519102478E-1,9.888436890E0,9.902267060E0
1.387498925E1,-2.344125366E-1,4.436773682E-1,9.876162415E0,9.888902006E0
1.388502125E1,-2.086660767E-1,4.120930481E-1,9.895023193E0,9.905798615E0
1.389505225E1,-1.823208618E-1,3.728746033E-1,9.921667786E0,9.930345815E0
1.390508425E1,-1.842668152E-1,3.321592712E-1,9.938582611E0,9.945838746E0
1.391511525E1,-2.017803955E-1,3.088078308E-1,9.926008759E0,9.932860992E0
1.392514625E1,-2.192939758E-1,3.110531616E-1,9.883048096E0,9.890373278E0
1.393517825E1,-2.378553772E-1,3.341052246E-1,9.829010468E0,9.837563126E0
1.394520925E1,-2.529739380E-1,3.450325012E-1,9.776469727E0,9.785826667E0
1.395524125E1,-2.594105530E-1,3.638932800E-1,9.753417664E0,9.763650356E0
1.396527225E1,-2.448907471E-1,3.725752258E-1,9.755213928E0,9.765397205E0
1.397530325E1,-2.227368164E-1,3.691323853E-1,9.793085175E0,9.802570461E0
1.398533525E1,-1.990859985E-1,3.731739807E-1,9.833650818E0,9.842742629E0
1.399536625E1,-2.050735474E-1,3.716770935E-1,9.856702881E0,9.865839584E0
1.400539825E1,-1.947450256E-1,3.706292725E-1,9.881401520E0,9.890267321E0
1.401542925E1,-2.070195007E-1,3.808081055E-1,9.899962921E0,9.909446893E0
1.402546025E1,-2.296224976E-1,3.824546814E-1,9.849368134E0,9.859465031E0
1.403549225E1,-2.628533936E-1,4.026626587E-1,9.849368134E0,9.861099419E0
1.404552325E1,-2.755769348E-1,4.324507141E-1,9.851463776E0,9.864800798E0
1.405555525E1,-2.486329651E-1,4.499642944E-1,9.837692413E0,9.851115583E0
1.406558625E1,-2.224374390E-1,4.272116089E-1,9.807455292E0,9.819275303E0
1.407561725E1,-2.046244812E-1,4.008663940E-1,9.773925018E0,9.784282054E0
1.408564925E1,-2.010319519E-1,3.888912964E-1,9.820178833E0,9.829931973E0
1.409568025E1,-1.892065430E-1,3.788621521E-1,9.914632416E0,9.923672283E0
1.410571225E1,-2.074685669E-1,3.826043701E-1,9.941875763E0,9.951398042E0
1.411574325E1,-2.109114075E-1,3.722758484E-1,9.940378876E0,9.949583163E0
1.412577425E1,-2.091151428E-1,3.900888062E-1,9.898166656E0,9.908057407E0
1.413580625E1,-2.163002014E-1,3.960763550E-1,9.832902374E0,9.843253088E0
1.414583725E1,-2.209405518E-1,3.968247986E-1,9.825417938E0,9.835909836E0
1.415586925E1,-2.293231201E-1,3.968247986E-1,9.830657043E0,9.841335119E0
1.416590025E1,-2.113604736E-1,3.870950317E-1,9.852212219E0,9.862078961E0
1.417593125E1,-2.068698120E-1,3.944297791E-1,9.844278717E0,9.854348960E0
1.418596325E1,-2.025288391E-1,3.839515686E-1,9.853858795E0,9.863415732E0
1.419599425E1,-2.149530029E-1,3.823049927E-1,9.846823425E0,9.856586299E0
1.420602625E1,-2.165995789E-1,3.558100891E-1,9.838291168E0,9.847105631E0
1.421605725E1,-2.151026917E-1,3.457809448E-1,9.834848328E0,9.843275637E0
1.422608825E1,-2.317181396E-1,3.382965088E-1,9.835746460E0,9.844290033E0
1.423612025E1,-2.368075562E-1,3.318598938E-1,9.835147705E0,9.843593815E0
1.424615125E1,-2.209405518E-1,3.332070923E-1,9.853559418E0,9.861666943E0
1.425618325E1,-2.206411743E-1,3.332070923E-1,9.843380585E0,9.851489777E0
1.426621425E1,-2.085163879E-1,3.412902832E-1,9.836045837E0,9.844173701E0
1.427624525E1,-2.101629639E-1,3.583547974E-1,9.823022919E0,9.831803797E0
1.428627725E1,-2.112107849E-1,3.525169373E-1,9.839039612E0,9.847617919E0
1.429630825E1,-2.151026917E-1,3.600013733E-1,9.843380585E0,9.852309957E0
1.430633925E1,-2.333647156E-1,3.568579102E-1,9.839189301E0,9.848423871E0
1.431637125E1,-2.362088013E-1,3.647914124E-1,9.839937744E0,9.849530049E0
1.432640225E1,-2.231858826E-1,3.734733582E-1,9.847571869E0,9.857178400E0
1.433643425E1,-2.249821472E-1,3.800596619E-1,9.831555176E0,9.841470393E0
1.434646525E1,-2.234852600E-1,3.978726196E-1,9.836644592E0,9.847224234E0
1.435649725E1,-2.107617188E-1,3.903881836E-1,9.828711090E0,9.838718673E0
1.436652825E1,-2.155517578E-1,3.999682617E-1,9.824519806E0,9.835020416E0
1.437655925E1,-2.121089172E-1,4.046086121E-1,9.829459534E0,9.840069768E0
1.438659125E1,-2.107617188E-1,3.891906738E-1,9.840536499E0,9.850484682E0
1.439662225E1,-2.094145203E-1,3.814068604E-1,9.862989807E0,9.872582923E0
1.440665425E1,-2.122586060E-1,3.836521912E-1,9.865833893E0,9.875571939E0
1.441668525E1,-2.242337036E-1,3.674858093E-1,9.843081207E0,9.852490763E0
1.442671625E1,-2.339634705E-1,3.617976379E-1,9.841434631E0,9.850861487E0
1.443674825E1,-2.294728088E-1,3.631448364E-1,9.844129028E0,9.853497261E0
1.444677925E1,-2.152523804E-1,3.635939026E-1,9.868677979E0,9.877719330E0
1.445681125E1,-1.743873596E-1,3.826043701E-1,9.877509613E0,9.886455038E0
1.446684225E1,-1.820214844E-1,3.960763550E-1,9.842332764E0,9.851980640E0
1.447687325E1,-1.917512512E-1,4.034111023E-1,9.816885681E0,9.827041953E0
1.448690525E1,-1.799258423E-1,3.746708679E-1,9.806856537E0,9.815660278E0
1.449693625E1,-1.877096558E-1,3.725752258E-1,9.833201752E0,9.842047750E0
1.450696725E1,-2.234852600E-1,3.725752258E-1,9.869725800E0,9.879283644E0
1.451699925E1,-2.143542480E-1,3.619473267E-1,9.876162415E0,9.885116977E0
1.452703025E1,-2.272274780E-1,3.608995056E-1,9.864187317E0,9.873402261E0
1.453706225E1,-2.201921082E-1,3.833528137E-1,9.827214203E0,9.837153193E0
1.454709325E1,-2.185455322E-1,3.791615295E-1,9.806407471E0,9.816167944E0
1.455712425E1,-2.077679443E-1,3.694317627E-1,9.805509338E0,9.814665594E0
1.456715625E1,-2.053729248E-1,3.549119568E-1,9.895322571E0,9.903814887E0
1.457718725E1,-1.257385254E-1,3.540138245E-1,1.000264938E1,1.000970183E1
1.458721925E1,-1.128652954E-1,3.640429688E-1,9.898615723E0,9.905950691E0
1.459725025E1,-2.013313293E-1,3.761677551E-1,9.747729492E0,9.757062403E0
1.460728125E1,-2.589614868E-1,3.656895447E-1,9.729317780E0,9.739631120E0
1.461731325E1,-2.489323425E-1,3.647914124E-1,9.796827393E0,9.806776588E0
1.462734425E1,-2.365081787E-1,3.567082214E-1,9.890382843E0,9.899638865E0
1.463737625E1,-1.981878662E-1,3.444337463E-1,9.913734283E0,9.921695444E0
1.464740725E1,-1.654060364E-1,3.625460815E-1,9.833650818E0,9.841721761E0
1.465743825E1,-1.710942078E-1,4.110452271E-1,9.793384552E0,9.803500007E0
1.466747025E1,-1.965412903E-1,4.282594299E-1,9.791737976E0,9.803069275E0
1.467750125E1,-2.031275940E-1,4.578977966E-1,9.819879456E0,9.832647850E0
1.468753325E1,-1.869612122E-1,4.770579529E-1,9.874366150E0,9.887651169E0
1.469756425E1,-1.685494995E-1,4.718188477E-1,9.873468018E0,9.886171790E0
1.470759525E1,-1.562750244E-1,4.574487305E-1,9.868079224E0,9.879912388E0
1.471762725E1,-1.681004333E-1,4.126918030E-1,9.882748718E0,9.892790026E0
1.472765825E1,-1.817221069E-1,3.845503235E-1,9.925709381E0,9.934817995E0
1.473769025E1,-1.948947144E-1,3.206332397E-1,9.929900665E0,9.936987312E0
1.474772125E1,-2.013313293E-1,3.001258850E-1,9.904154205E0,9.910745702E0
1.475775225E1,-1.871109009E-1,3.348536682E-1,9.871821442E0,9.879271028E0
1.476778425E1,-2.005828857E-1,3.526666260E-1,9.821376343E0,9.829752820E0
1.477781525E1,-2.082170105E-1,3.650907898E-1,9.790091400E0,9.799108900E0
1.478784754E1,-1.974394226E-1,3.719764709E-1,9.788893890E0,9.797948378E0
1.479787854E1,-1.890568542E-1,3.736230469E-1,9.783505096E0,9.792461828E0
1.480790954E1,-1.752854919E-1,3.667373657E-1,9.796528015E0,9.804957035E0
1.481794154E1,-1.666035461E-1,3.571572876E-1,9.817933502E0,9.825840235E0
1.482797254E1,-1.688488770E-1,3.442840576E-1,9.844727783E0,9.852192983E0
1.483800454E1,-1.808239746E-1,3.507206726E-1,9.867181091E0,9.875067847E0
1.484803554E1,-1.953437805E-1,3.496728516E-1,9.892179108E0,9.900284733E0
1.485806654E1,-1.978884888E-1,3.751199341E-1,9.882149963E0,9.891246773E0
1.486809854E1,-2.062710571E-1,4.159849548E-1,9.857750702E0,9.868679756E0
1.487812954E1,-2.186952209E-1,4.373904419E-1,9.830507355E0,9.842662894E0
1.488816154E1,-2.073188782E-1,4.430786133E-1,9.836195526E0,9.848352258E0
1.489819254E1,-1.718426514E-1,4.294569397E-1,9.816885681E0,9.827777350E0
1.490822354E1,-1.649569702E-1,4.182302856E-1,9.781559143E0,9.791885755E0
1.491825554E1,-1.689985657E-1,3.930825806E-1,9.810898132E0,9.820223857E0
1.492828654E1,-1.692979431E-1,3.812571716E-1,9.902058563E0,9.910841670E0
1.493831854E1,-1.787283325E-1,3.701802063E-1,9.915979614E0,9.924496406E0
1.494834954E1,-1.877096558E-1,3.866459656E-1,9.929900665E0,9.939198018E0
1.495838054E1,-1.893562317E-1,3.785627747E-1,9.881401520E0,9.890463162E0
1.496841254E1,-1.781295776E-1,3.869453430E-1,9.851164398E0,9.860370016E0
1.497844354E1,-1.811233521E-1,4.105961609E-1,9.815987549E0,9.826240707E0
1.498847554E1,-1.827699280E-1,4.062551880E-1,9.826765137E0,9.836857281E0
1.499850654E1,-1.975891113E-1,4.022135925E-1,9.849517822E0,9.859706819E0
1.500853754E1,-1.869612122E-1,3.811074829E-1,9.875264282E0,9.884383747E0
1.501856954E1,-1.784289551E-1,3.752696228E-1,9.865833893E0,9.874580628E0
1.502860054E1,-1.854643250E-1,3.691323853E-1,9.855355682E0,9.864009903E0
1.503863254E1,-1.824705505E-1,3.582051086E-1,9.840686188E0,9.848893900E0
1.504866354E1,-1.760339355E-1,3.498225403E-1,9.789941711E0,9.797771301E0
1.505869454E1,-1.999841309E-1,3.369493103E-1,9.796827393E0,9.804659884E0
1.506872654E1,-1.980381775E-1,3.432362366E-1,9.804760895E0,9.812765484E0
1.507875754E1,-1.924996948E-1,3.372486877E-1,9.832153931E0,9.839819293E0
1.508878954E1,-1.993853760E-1,3.426374817E-1,9.829609222E0,9.837599933E0
1.509882054E1,-1.969903564E-1,3.665876770E-1,9.833501129E0,9.842303398E0
1.510885154E1,-2.010319519E-1,3.721261597E-1,9.823621674E0,9.832722640E0
1.511888354E1,-1.984872437E-1,3.824546814E-1,9.821526031E0,9.830973622E0
1.512891454E1,-2.037263489E-1,3.716770935E-1,9.855205994E0,9.864316168E0
1.513894554E1,-2.004331970E-1,3.812571716E-1,9.860295410E0,9.869698885E0
1.514897754E1,-2.047741699E-1,3.983216858E-1,9.852511597E0,9.862686114E0
1.515900854E1,-1.935475159E-1,3.844006348E-1,9.858499146E0,9.867888826E0
1.516904054E1,-1.941462708E-1,3.932322693E-1,9.874216461E0,9.883950380E0
1.517907154E1,-1.987866211E-1,4.122427368E-1,9.905651093E0,9.916218219E0
1.518910254E1,-2.001338196E-1,3.957769775E-1,9.910890198E0,9.920808307E0
1.519913454E1,-2.121089172E-1,3.963757324E-1,9.888436890E0,9.898650819E0
1.520916554E1,-2.281256104E-1,3.848497009E-1,9.875863037E0,9.885991165E0
1.521919754E1,-2.097138977E-1,3.950285339E-1,9.884694672E0,9.894807538E0
1.522922854E1,-2.065704346E-1,3.926335144E-1,9.904004517E0,9.913936548E0
1.523925954E1,-1.933978271E-1,4.062551880E-1,9.885293427E0,9.895527885E0
1.524929154E1,-1.793270874E-1,4.092489624E-1,9.861792297E0,9.871909148E0
1.525932254E1,-1.781295776E-1,4.328997803E-1,9.791438599E0,9.802622210E0
1.526935454E1,-1.895059204E-1,4.161346436E-1,9.779014435E0,9.789698864E0
1.527938554E1,-2.070195007E-1,4.114942932E-1,9.765542450E0,9.776400358E0
1.528941654E1,-2.243833923E-1,3.899391174E-1,9.766440582E0,9.776797127E0
1.529944854E1,-2.216889954E-1,3.920347595E-1,9.790989532E0,9.801342423E0
1.530947954E1,-2.375559998E-1,3.809577942E-1,9.735155640E0,9.745502400E0
1.531951154E1,-2.574645996E-1,3.643423462E-1,9.730964355E0,9.741185793E0
1.532954254E1,-2.179467773E-1,3.439846802E-1,9.910890198E0,9.919252531E0
1.533957354E1,-1.501377869E-1,3.400927734E-1,1.008512787E1,1.009197744E1
1.534960554E1,-9.520202637E-2,3.565585327E-1,1.001402573E1,1.002082375E1
1.535963654E1,-1.460961914E-1,4.028123474E-1,9.794432373E0,9.803800661E0
1.536966854E1,-1.996847534E-1,4.173321533E-1,9.608968048E0,9.620099120E0
1.537969954E1,-2.586621094E-1,4.064048767E-1,9.587562561E0,9.599657643E0
1.538973054E1,-2.553689575E-1,3.803590393E-1,9.749974823E0,9.760732316E0
1.539976254E1,-1.874102783E-1,3.481759644E-1,9.892927551E0,9.900826463E0
1.540979354E1,-1.231938171E-1,3.477268982E-1,9.926607513E0,9.933459993E0
1.541982554E1,-1.104702759E-1,3.688330078E-1,9.865833893E0,9.873343905E0
1.542985654E1,-1.466949463E-1,3.882925415E-1,9.799372101E0,9.808159056E0
1.543988754E1,-2.246827698E-1,4.104464722E-1,9.787995758E0,9.799173925E0
1.544991954E1,-3.082090759E-1,4.206253052E-1,9.811796265E0,9.825643206E0
1.545995054E1,-3.083587646E-1,4.381388855E-1,9.864187317E0,9.878726752E0
1.546998254E1,-2.502795410E-1,4.719685364E-1,9.868977356E0,9.883425934E0
1.548001354E1,-2.017803955E-1,4.969665527E-1,9.876012726E0,9.890567145E0
1.549004454E1,-1.407073975E-1,4.972659302E-1,9.903405762E0,9.916880440E0
1.550007654E1,-9.924362183E-2,4.876858521E-1,9.922565918E0,9.935039063E0
1.551010754E1,-9.714797974E-2,4.438270569E-1,9.920470276E0,9.930868576E0
1.552013954E1,-1.154100037E-1,4.102967834E-1,9.890682220E0,9.899861499E0
1.553017054E1,-1.493893433E-1,3.803590393E-1,9.873767395E0,9.882220031E0
1.554020154E1,-1.754351807E-1,3.564088440E-1,9.830207977E0,9.838231225E0
1.555023354E1,-1.935475159E-1,3.820056152E-1,9.831555176E0,9.840877304E0
1.556026454E1,-2.050735474E-1,3.863465881E-1,9.845925293E0,9.855636140E0
1.557029654E1,-2.020797729E-1,3.956272888E-1,9.829160156E0,9.839194406E0
1.558032754E1,-1.911524963E-1,4.188290405E-1,9.837842102E0,9.848608748E0
1.559035854E1,-1.898052979E-1,4.261637878E-1,9.817933502E0,9.829011134E0
1.560039054E1,-1.933978271E-1,4.290078735E-1,9.806557159E0,9.817841606E0
1.561042154E1,-1.975891113E-1,4.022135925E-1,9.837692413E0,9.847893645E0
1.562045354E1,-2.106120300E-1,4.132905579E-1,9.860445099E0,9.871349657E0
1.563048454E1,-1.986369324E-1,4.004173279E-1,9.871222687E0,9.881337359E0
1.564051554E1,-2.061213684E-1,4.158352661E-1,9.852062531E0,9.862988446E0
1.565054754E1,-2.332150269E-1,4.177812195E-1,9.850415955E0,9.862029450E0
1.566057854E1,-2.350112915E-1,4.525090027E-1,9.844428406E0,9.857624731E0
1.567061054E1,-2.185455322E-1,4.611909485E-1,9.794132996E0,9.807420679E0
1.568064154E1,-1.826202393E-1,4.336482239E-1,9.779912567E0,9.791225192E0
1.569067254E1,-1.568737793E-1,4.197271729E-1,9.810149689E0,9.820377650E0
1.570070454E1,-1.577719116E-1,4.152365112E-1,9.824220428E0,9.834257489E0
1.571073554E1,-1.465452576E-1,3.917353821E-1,9.823022919E0,9.831923077E0
1.572076754E1,-1.743873596E-1,4.096980286E-1,9.845476227E0,9.855539841E0
1.573079854E1,-1.923500061E-1,4.170327759E-1,9.860445099E0,9.871134302E0
1.574082954E1,-2.082170105E-1,4.179309082E-1,9.869576111E0,9.880615020E0
1.575086154E1,-2.273771667E-1,4.224215698E-1,9.887838135E0,9.899468841E0
1.576089254E1,-2.309696960E-1,4.367916870E-1,9.875713348E0,9.888065944E0
1.577092454E1,-2.173480225E-1,4.481680298E-1,9.859546967E0,9.872120397E0
1.578095554E1,-2.047741699E-1,4.525090027E-1,9.846224670E0,9.858744196E0
1.579098654E1,-1.902543640E-1,4.637356567E-1,9.875413971E0,9.888126647E0
1.580101854E1,-1.701960754E-1,4.567002869E-1,9.883048096E0,9.895058439E0
1.581104954E1,-1.713935852E-1,4.293072510E-1,9.871222687E0,9.882040164E0
1.582108154E1,-1.788780212E-1,4.346960449E-1,9.860594788E0,9.871792520E0
1.583111254E1,-1.826202393E-1,4.141886902E-1,9.848470001E0,9.858867267E0
1.584114354E1,-2.077679443E-1,4.052073669E-1,9.847422180E0,9.857945228E0
1.585117554E1,-2.113604736E-1,3.884422302E-1,9.840985565E0,9.850916582E0
1.586120654E1,-2.083666992E-1,3.920347595E-1,9.837393036E0,9.847406241E0
1.587123854E1,-2.234852600E-1,3.903881836E-1,9.807604980E0,9.817915463E0
1.588126954E1,-2.215393066E-1,3.966751099E-1,9.809101868E0,9.819618641E0
1.589130054E1,-2.213896179E-1,3.977229309E-1,9.808952179E0,9.819508121E0
1.590133254E1,-2.151026917E-1,3.875440979E-1,9.841734009E0,9.851709897E0
1.591136354E1,-2.034269714E-1,3.906875610E-1,9.859846344E0,9.869680300E0
1.592139454E1,-1.833686829E-1,3.992198181E-1,9.874964905E0,9.884732288E0
1.593142654E1,-2.056723022E-1,4.200265503E-1,9.870025177E0,9.881099149E0
1.594145754E1,-1.939965820E-1,4.189787292E-1,9.842183075E0,9.853006928E0
1.595148954E1,-2.140548706E-1,4.346960449E-1,9.844129028E0,9.856046696E0
1.596152054E1,-2.209405518E-1,4.354444885E-1,9.851912842E0,9.864005944E0
1.597155154E1,-2.347119141E-1,4.317022705E-1,9.867181091E0,9.879408850E0
1.598158354E1,-2.345622253E-1,4.312532043E-1,9.865384827E0,9.877591637E0
1.599161454E1,-2.401007080E-1,4.330494690E-1,9.842033386E0,9.854481284E0
1.600164654E1,-2.496807861E-1,4.206253052E-1,9.827513580E0,9.839679330E0
1.601167754E1,-2.305206299E-1,4.240681458E-1,9.865235138E0,9.877035885E0
1.602170854E1,-2.050735474E-1,4.120930481E-1,9.888885956E0,9.899592986E0
1.603174054E1,-1.857637024E-1,4.388873291E-1,9.892777863E0,9.904250809E0
1.604177154E1,-1.839674377E-1,4.543052673E-1,9.853709106E0,9.865891772E0
1.605180354E1,-1.978884888E-1,4.547543335E-1,9.801318054E0,9.813857394E0
1.606183454E1,-2.192939758E-1,4.436773682E-1,9.778265991E0,9.790782668E0
1.607186554E1,-2.399510193E-1,4.188290405E-1,9.787247314E0,9.799143037E0
1.608189754E1,-2.383044434E-1,4.122427368E-1,9.848170624E0,9.859675335E0
1.609192854E1,-2.275268555E-1,4.050576782E-1,9.869576111E0,9.880504683E0
1.610196054E1,-2.321672058E-1,3.972738647E-1,9.796528015E0,9.807328346E0
1.611199154E1,-2.531236267E-1,3.938310242E-1,9.759554901E0,9.770777160E0
1.612202254E1,-2.160008240E-1,3.959266663E-1,9.877210236E0,9.887502026E0
1.613205454E1,-1.678010559E-1,3.986210632E-1,1.004590942E1,1.005521517E1
1.614208554E1,-1.221459961E-1,4.234693909E-1,1.006941055E1,1.007905129E1
1.615211754E1,-1.686991882E-1,4.294569397E-1,9.870174866E0,9.880953626E0
1.616214854E1,-2.552192688E-1,4.378395081E-1,9.658365326E0,9.671652448E0
1.617217954E1,-2.956352234E-1,4.305047607E-1,9.617649994E0,9.631818413E0
1.618221154E1,-2.926414490E-1,4.132905579E-1,9.754764862E0,9.767900778E0
1.619224254E1,-2.402503967E-1,3.948788452E-1,9.918973389E0,9.929737290E0
1.620227454E1,-1.785786438E-1,3.896397400E-1,9.988728333E0,9.997919942E0
1.621230554E1,-1.465452576E-1,3.918850708E-1,9.931696930E0,9.940505688E0
1.622233654E1,-1.498384094E-1,4.189787292E-1,9.835447083E0,9.845507302E0
1.623236854E1,-1.936972046E-1,4.487667847E-1,9.799521790E0,9.811704110E0
1.624239954E1,-2.510279846E-1,4.632865906E-1,9.815837860E0,9.829970621E0
1.625243154E1,-2.644999695E-1,4.632865906E-1,9.853409729E0,9.867840594E0
1.626246254E1,-2.598596191E-1,4.945715332E-1,9.891879730E0,9.907644151E0
1.627249354E1,-2.136058044E-1,5.177732849E-1,9.884844360E0,9.900700210E0
1.628252554E1,-1.930984497E-1,5.349874878E-1,9.889634399E0,9.905976336E0
1.629255654E1,-1.889071655E-1,5.081932068E-1,9.871821442E0,9.886698379E0
1.630258854E1,-1.916015625E-1,4.640350342E-1,9.866881714E0,9.879645461E0
1.631261954E1,-2.121089172E-1,4.246669006E-1,9.860744476E0,9.872163582E0
1.632265054E1,-2.062710571E-1,4.037104797E-1,9.859546967E0,9.869964351E0
1.633268254E1,-2.291734314E-1,4.011657715E-1,9.826016693E0,9.836872394E0
1.634271354E1,-2.308200073E-1,3.950285339E-1,9.817634125E0,9.828289028E0
1.635274554E1,-2.374063110E-1,3.854484558E-1,9.820029144E0,9.830458009E0
1.636277654E1,-2.487826538E-1,3.842509460E-1,9.816286926E0,9.826954290E0
1.637280754E1,-2.417472839E-1,3.833528137E-1,9.820627899E0,9.831079974E0
1.638283954E1,-2.242337036E-1,3.817062378E-1,9.830058289E0,9.840021665E0
1.639287054E1,-2.058219910E-1,4.001179504E-1,9.833201752E0,9.843490933E0
1.640290254E1,-2.107617188E-1,4.011657715E-1,9.858798523E0,9.869207810E0
1.641293354E1,-2.022294617E-1,4.153862000E-1,9.871072998E0,9.881878596E0
1.642296454E1,-2.106120300E-1,4.385879517E-1,9.890981598E0,9.902940664E0
1.643299654E1,-2.284249878E-1,4.411326599E-1,9.845326538E0,9.857851218E0
1.644302754E1,-2.468367004E-1,4.620890808E-1,9.777068481E0,9.791094054E0
