"Time (s)","Acceleration x (m/s^2)","Acceleration y (m/s^2)","Acceleration z (m/s^2)","Absolute acceleration (m/s^2)"
4.744166508E-4,4.827461243E-1,-8.801696777E-2,1.091245743E1,1.092348470E1
1.050541666E-2,7.863148499E-1,-1.227447510E-1,1.028990204E1,1.032063183E1
2.053641668E-2,8.836125183E-1,-5.987548828E-2,9.752968597E0,9.793097192E0
3.056741669E-2,8.397537231E-1,1.058299255E-1,9.159003754E0,9.198028922E0
4.059841664E-2,6.483018494E-1,2.634521484E-1,8.611592102E0,8.639978059E0
5.062941666E-2,4.107458496E-1,3.748205566E-1,8.217910767E0,8.236702008E0
6.066041667E-2,1.598675537E-1,4.324507141E-1,8.096064148E0,8.109181583E0
7.069141668E-2,1.601669312E-2,4.346960449E-1,8.427025909E0,8.438245248E0
8.072341664E-2,2.350112915E-2,3.933819580E-1,9.046886902E0,9.055465989E0
9.075441665E-2,1.248403931E-1,3.552113342E-1,9.768835602E0,9.776088647E0
1.007854167E-1,2.897973633E-1,3.406915283E-1,1.035576508E1,1.036541960E1
1.108164167E-1,4.080514526E-1,3.013233948E-1,1.066187851E1,1.067393813E1
1.208474167E-1,4.740641785E-1,2.794688416E-1,1.069600754E1,1.071015485E1
1.308784166E-1,4.842430115E-1,2.694396973E-1,1.058538757E1,1.059988298E1
1.409094167E-1,4.716691589E-1,2.564167786E-1,1.041534119E1,1.042916839E1
1.509404167E-1,4.552033997E-1,2.409988403E-1,1.028720764E1,1.030009377E1
1.609714167E-1,4.498146057E-1,2.284249878E-1,1.016131943E1,1.017383525E1
1.710024166E-1,4.264631653E-1,2.344125366E-1,9.982291718E0,9.994146687E0
1.810334167E-1,3.731739807E-1,2.585124207E-1,9.735305328E0,9.745884122E0
1.910644167E-1,3.296145630E-1,2.776725769E-1,9.502090302E0,9.511859330E0
2.010954167E-1,2.525248718E-1,2.920426941E-1,9.306297455E0,9.314302446E0
2.111264167E-1,2.128573608E-1,2.806663513E-1,9.278155975E0,9.284840341E0
2.211574166E-1,2.383044434E-1,2.350112915E-1,9.427245941E0,9.433185324E0
2.311884167E-1,3.173400879E-1,2.227368164E-1,9.664203186E0,9.671977029E0
2.412194167E-1,4.065545654E-1,1.984872437E-1,9.922715607E0,9.933024152E0
2.512504167E-1,4.861889648E-1,1.999841309E-1,1.009859985E1,1.011227434E1
2.612814167E-1,5.213658142E-1,2.198927307E-1,1.015667908E1,1.017242867E1
2.713124166E-1,4.842430115E-1,2.505789185E-1,1.009021729E1,1.010493770E1
2.813434167E-1,4.023632813E-1,2.661465454E-1,1.002510269E1,1.003670335E1
2.913744167E-1,3.236270142E-1,3.049159241E-1,9.958790588E0,9.968711960E0
3.014054167E-1,2.574645996E-1,3.107537842E-1,9.874964905E0,9.883207364E0
3.114364166E-1,2.556683350E-1,3.330574036E-1,9.795180817E0,9.804175680E0
3.214674167E-1,2.788700867E-1,3.373983765E-1,9.745933228E0,9.755758334E0
3.314984167E-1,3.254232788E-1,3.457809448E-1,9.718839569E0,9.730432022E0
3.415304167E-1,3.576063538E-1,3.297642517E-1,9.719737701E0,9.731902576E0
3.515614166E-1,3.722758484E-1,3.020718384E-1,9.774374084E0,9.786124128E0
3.615924167E-1,3.718267822E-1,2.856060791E-1,9.858349457E0,9.869492388E0
3.716234167E-1,3.894900513E-1,2.475851440E-1,9.927954712E0,9.938676253E0
3.816544167E-1,4.062551880E-1,2.371069336E-1,9.962233429E0,9.973332335E0
3.916854167E-1,4.152365112E-1,2.336640930E-1,9.977202301E0,9.988572772E0
4.017164166E-1,4.071533203E-1,2.546205139E-1,9.948312378E0,9.959895813E0
4.117474167E-1,4.041595459E-1,2.597099304E-1,9.899813232E0,9.911462870E0
4.217784167E-1,4.107458496E-1,2.728825378E-1,9.859996033E0,9.872319829E0
4.318094167E-1,4.046086121E-1,3.028202820E-1,9.821076965E0,9.834071436E0
4.418404167E-1,3.826043701E-1,3.083587646E-1,9.787846069E0,9.800173565E0
4.518714166E-1,3.748205566E-1,3.210823059E-1,9.767039337E0,9.779501097E0
4.619024167E-1,3.661386108E-1,3.026705933E-1,9.775870972E0,9.787406205E0
4.719334167E-1,3.459306335E-1,3.100053406E-1,9.805958405E0,9.816954291E0
4.819644167E-1,3.414399719E-1,3.025209045E-1,9.837243347E0,9.847814825E0
4.919954166E-1,3.429368591E-1,3.026705933E-1,9.871671753E0,9.882262817E0
5.020264167E-1,3.450325012E-1,2.983296204E-1,9.881251831E0,9.891773640E0
5.120574167E-1,3.668870544E-1,2.847079468E-1,9.869276733E0,9.880196757E0
5.220884167E-1,3.908372498E-1,2.935395813E-1,9.840386810E0,9.852519060E0
5.321194167E-1,4.074526978E-1,2.597099304E-1,9.836494904E0,9.848355139E0
5.421504166E-1,3.939807129E-1,2.291734314E-1,9.847571869E0,9.858114068E0
5.521814167E-1,3.953279114E-1,2.109114075E-1,9.826465759E0,9.836676120E0
5.622134167E-1,3.932322693E-1,2.034269714E-1,9.824220428E0,9.834191435E0
5.722444167E-1,3.592529297E-1,2.026785278E-1,9.838440857E0,9.847083820E0
5.822754166E-1,3.552113342E-1,2.107617188E-1,9.870025177E0,9.878663502E0
5.923064167E-1,3.559597778E-1,2.502795410E-1,9.893077240E0,9.902642298E0
6.023374167E-1,3.662882996E-1,3.037184143E-1,9.890233154E0,9.901672780E0
6.123684167E-1,3.812571716E-1,3.236270142E-1,9.877210236E0,9.889862158E0
6.223994167E-1,3.736230469E-1,3.502716064E-1,9.831405487E0,9.844735559E0
6.324304166E-1,3.522175598E-1,3.520678711E-1,9.833501129E0,9.846103465E0
6.424614167E-1,3.474275208E-1,3.562591553E-1,9.840237122E0,9.852811430E0
6.524924167E-1,3.520678711E-1,3.420387268E-1,9.855655060E0,9.867871044E0
6.625234167E-1,3.815565491E-1,3.335064697E-1,9.864786072E0,9.877794096E0
6.725544166E-1,3.890409851E-1,3.182382202E-1,9.818831635E0,9.831687705E0
6.825854167E-1,3.718267822E-1,3.113525391E-1,9.793534241E0,9.805534584E0
6.926164167E-1,3.860472107E-1,2.871029663E-1,9.831106110E0,9.842870918E0
7.026474167E-1,4.156855774E-1,2.622546387E-1,9.984686737E0,9.996776542E0
7.126784167E-1,4.617897034E-1,2.573149109E-1,1.004575974E1,1.005965950E1
7.227093333E-1,4.894821167E-1,2.499801636E-1,9.910590820E0,9.925819524E0
7.327403334E-1,4.599934387E-1,2.478845215E-1,9.819580078E0,9.833473120E0
7.427713333E-1,3.998185730E-1,2.538720703E-1,9.798174591E0,9.809614225E0
7.528023333E-1,3.821553040E-1,2.350112915E-1,9.799671478E0,9.809935477E0
7.628333333E-1,4.062551880E-1,2.375559998E-1,9.810748444E0,9.822029381E0
7.728643334E-1,4.342469788E-1,2.582130432E-1,9.807754669E0,9.820758426E0
7.828953333E-1,4.441264343E-1,2.781216431E-1,9.778415680E0,9.792446740E0
7.929263333E-1,4.382885742E-1,3.121009827E-1,9.758207703E0,9.773030311E0
8.029573333E-1,4.150868225E-1,3.520678711E-1,9.792935486E0,9.808049464E0
8.129893334E-1,3.947291565E-1,3.695814514E-1,9.839488678E0,9.854336051E0
8.230203333E-1,3.757186890E-1,3.978726196E-1,9.871222687E0,9.886379746E0
8.330513333E-1,3.484753418E-1,4.210743713E-1,9.897268524E0,9.912349012E0
8.430823333E-1,3.418890381E-1,3.978726196E-1,9.897268524E0,9.911161132E0
8.531133333E-1,3.589535522E-1,3.823049927E-1,9.902657318E0,9.916532999E0
8.631443334E-1,4.022135925E-1,3.737727356E-1,9.925110626E0,9.940286856E0
8.731753333E-1,4.230203247E-1,3.369493103E-1,9.939929810E0,9.954631367E0
8.832063333E-1,4.279600525E-1,3.068618774E-1,9.925859070E0,9.939818524E0
8.932373333E-1,4.360432434E-1,2.766247559E-1,9.883197784E0,9.896678908E0
9.032683333E-1,4.153862000E-1,2.637515259E-1,9.815388794E0,9.827714268E0
9.132993334E-1,4.149371338E-1,2.514770508E-1,9.784103851E0,9.796126873E0
9.233303333E-1,4.013154602E-1,2.433938599E-1,9.790839844E0,9.802083427E0
9.333613333E-1,4.120930481E-1,2.451901245E-1,9.791288910E0,9.803023890E0
9.433923333E-1,4.275109863E-1,2.667453003E-1,9.814191284E0,9.827119072E0
9.534233334E-1,4.517605591E-1,2.791694641E-1,9.844578094E0,9.858891472E0
9.634543333E-1,4.671784973E-1,3.029699707E-1,9.861492920E0,9.877200472E0
9.734853333E-1,4.572990417E-1,3.254232788E-1,9.860594788E0,9.876555690E0
9.835163333E-1,4.290078735E-1,3.580554199E-1,9.816436615E0,9.832328272E0
9.935473333E-1,4.029620361E-1,3.882925415E-1,9.794582062E0,9.810554891E0
1.003578333E0,3.665876770E-1,3.995191956E-1,9.817035370E0,9.831998045E0
1.013609333E0,3.625460815E-1,3.805087280E-1,9.835447083E0,9.849479472E0
1.023640333E0,3.743714905E-1,3.501219177E-1,9.844578094E0,9.857913432E0
1.033671333E0,3.893403625E-1,3.311114502E-1,9.841883698E0,9.855145632E0
1.043702333E0,4.293072510E-1,3.234773254E-1,9.875563660E0,9.890181995E0
1.053733333E0,4.668791199E-1,3.155438232E-1,9.887688446E0,9.903732974E0
1.063765333E0,4.692741394E-1,3.230282593E-1,9.880503387E0,9.896914300E0
1.073796333E0,4.567002869E-1,3.029699707E-1,9.884095917E0,9.899278663E0
1.083827333E0,4.487667847E-1,3.236270142E-1,9.883796539E0,9.899270685E0
1.093858333E0,4.303550720E-1,3.212319946E-1,9.870923309E0,9.885520849E0
1.103889333E0,4.224215698E-1,3.218307495E-1,9.856104126E0,9.870400375E0
1.113920333E0,4.337979126E-1,3.273692322E-1,9.877210236E0,9.892150084E0
1.123951333E0,4.555027771E-1,3.243754578E-1,9.884095917E0,9.899901732E0
1.133982333E0,4.531077576E-1,3.412902832E-1,9.897867279E0,9.914109258E0
1.144013333E0,4.580474854E-1,3.617976379E-1,9.876611481E0,9.893844519E0
1.154044333E0,4.550537109E-1,3.555107117E-1,9.856253815E0,9.873155575E0
1.164075333E0,4.315525818E-1,3.604504395E-1,9.823921051E0,9.839999338E0
1.174106333E0,4.041595459E-1,3.568579102E-1,9.813592529E0,9.828392078E0
1.184137333E0,3.884422302E-1,3.475772095E-1,9.796228638E0,9.810086279E0
1.194168333E0,4.046086121E-1,3.234773254E-1,9.807604980E0,9.821275944E0
1.204199333E0,4.144880676E-1,3.173400879E-1,9.817634125E0,9.831502677E0
1.214230333E0,4.376898193E-1,2.989283752E-1,9.840087433E0,9.854351893E0
1.224261333E0,4.604425049E-1,2.770738220E-1,9.846524048E0,9.861177061E0
1.234292333E0,4.781057739E-1,2.758763123E-1,9.819580078E0,9.835082398E0
1.244323333E0,4.743635559E-1,2.854563904E-1,9.839189301E0,9.854752773E0
1.254354333E0,4.721182251E-1,2.827619934E-1,9.842781830E0,9.858154194E0
1.264385333E0,4.547543335E-1,3.008743286E-1,9.845176849E0,9.860265415E0
1.274416333E0,4.296066284E-1,3.191363525E-1,9.870923309E0,9.885420418E0
1.284447333E0,4.019142151E-1,3.192860413E-1,9.893226929E0,9.906534090E0
1.294479333E0,4.140390015E-1,3.329077148E-1,9.894274750E0,9.908528078E0
1.304510333E0,4.306544495E-1,3.523672485E-1,9.892478485E0,9.908115689E0
1.314541333E0,4.318519592E-1,3.960763550E-1,9.866432648E0,9.883818381E0
1.324572333E0,4.067042542E-1,3.974235535E-1,9.840686188E0,9.857101931E0
1.334603333E0,4.073030090E-1,4.031117249E-1,9.824070740E0,9.840770331E0
1.344634333E0,3.960763550E-1,3.947291565E-1,9.812694397E0,9.828614293E0
1.354665333E0,4.055067444E-1,3.845503235E-1,9.822424164E0,9.838309363E0
1.364696333E0,4.276606750E-1,3.772155762E-1,9.853559418E0,9.870046527E0
1.374727333E0,4.269122314E-1,3.611988831E-1,9.851314087E0,9.867173249E0
1.384758333E0,4.303550720E-1,3.475772095E-1,9.807155914E0,9.822745163E0
1.394789333E0,4.475692749E-1,3.260220337E-1,9.795031128E0,9.810669876E0
1.404820333E0,4.649331665E-1,3.167413330E-1,9.866732025E0,9.882757145E0
1.414851333E0,5.254074097E-1,3.017724609E-1,1.003243744E1,1.005071741E1
1.424882333E0,5.764512634E-1,2.969824219E-1,1.001686981E1,1.003783719E1
1.434913333E0,5.505551147E-1,2.805166626E-1,9.870773621E0,9.890094661E0
1.444944333E0,4.761598206E-1,2.942880249E-1,9.800569611E0,9.816542075E0
1.454975333E0,4.435276794E-1,2.865042114E-1,9.786349182E0,9.800583237E0
1.465006333E0,4.302053833E-1,2.857557678E-1,9.809550934E0,9.823137104E0
1.475037333E0,4.406835938E-1,2.731819153E-1,9.823471985E0,9.837145532E0
1.485068333E0,4.767585754E-1,3.095562744E-1,9.808503113E0,9.824960923E0
1.495099333E0,4.927752686E-1,3.540138245E-1,9.766590271E0,9.785419704E0
1.505130333E0,4.824467468E-1,3.998185730E-1,9.767638092E0,9.787714935E0
1.515161333E0,4.620890808E-1,4.285588074E-1,9.811646576E0,9.831866430E0
1.525192333E0,4.607418823E-1,4.641847229E-1,9.832303619E0,9.854031916E0
1.535224333E0,4.662803650E-1,4.866380310E-1,9.869576111E0,9.892561173E0
1.545255333E0,4.640350342E-1,4.923262024E-1,9.860145721E0,9.883328754E0
1.555286333E0,4.713697815E-1,4.667294312E-1,9.868977356E0,9.891245618E0
1.565317333E0,4.754113770E-1,4.358935547E-1,9.903854828E0,9.924835496E0
1.575348333E0,4.824467468E-1,3.821553040E-1,9.917775879E0,9.936854428E0
1.585379333E0,4.793032837E-1,3.469784546E-1,9.914782104E0,9.932423162E0
1.595410333E0,4.581971741E-1,3.146456909E-1,9.894424438E0,9.910024295E0
1.605441333E0,4.480183411E-1,2.966830444E-1,9.845775604E0,9.860427907E0
1.615472333E0,4.460723877E-1,2.808160400E-1,9.812844086E0,9.826990754E0
1.625503333E0,4.558021545E-1,2.722837830E-1,9.786199493E0,9.800591543E0
1.635534333E0,4.796026611E-1,2.990780640E-1,9.805958405E0,9.822234299E0
1.645565333E0,5.069956970E-1,2.969824219E-1,9.833950195E0,9.851488194E0
1.655596333E0,5.411247253E-1,3.055146790E-1,9.835896149E0,9.855506493E0
1.665627333E0,5.406756592E-1,3.342549133E-1,9.845176849E0,9.865676039E0
1.675658333E0,5.279521179E-1,3.454815674E-1,9.859996033E0,9.880162586E0
1.685689333E0,5.152285767E-1,3.679348755E-1,9.858349457E0,9.878658339E0
1.695720333E0,4.911286926E-1,3.881428528E-1,9.828860779E0,9.848774872E0
1.705751333E0,4.659809875E-1,4.017645264E-1,9.812095642E0,9.831366838E0
1.715782333E0,4.264631653E-1,4.164340210E-1,9.826914825E0,9.844975526E0
1.725813208E0,4.278103638E-1,4.068539429E-1,9.834548950E0,9.852253798E0
1.735844208E0,4.406835938E-1,3.849993896E-1,9.835297394E0,9.852690058E0
1.745875208E0,4.605921936E-1,3.622467041E-1,9.856104126E0,9.873507806E0
1.755906208E0,4.784051514E-1,3.420387268E-1,9.864337006E0,9.881852384E0
1.765937208E0,5.020559692E-1,3.323089600E-1,9.870174866E0,9.888520684E0
1.775968208E0,5.078938293E-1,3.339555359E-1,9.866582336E0,9.885288536E0
1.786000208E0,4.939727783E-1,3.333567810E-1,9.838889923E0,9.856920958E0
1.796031208E0,4.754113770E-1,3.225791931E-1,9.851164398E0,9.867903187E0
1.806062208E0,4.584965515E-1,3.164419556E-1,9.833201752E0,9.848970062E0
1.816093208E0,4.680766296E-1,3.329077148E-1,9.835297394E0,9.852055527E0
1.826124208E0,4.930746460E-1,3.567082214E-1,9.851912842E0,9.870691465E0
1.836155208E0,5.038522339E-1,3.716770935E-1,9.860295410E0,9.880153668E0
1.846186208E0,5.080435181E-1,3.823049927E-1,9.875713348E0,9.896159834E0
1.856217208E0,4.926255798E-1,3.800596619E-1,9.885742493E0,9.905303122E0
1.866248208E0,4.816983032E-1,3.754193115E-1,9.845027161E0,9.863951171E0
1.876279208E0,4.441264343E-1,3.827540588E-1,9.802964630E0,9.820481887E0
1.886310208E0,4.251159668E-1,3.694317627E-1,9.795779572E0,9.811957033E0
1.896341208E0,4.454736328E-1,3.626957703E-1,9.793234863E0,9.810068505E0
1.906372208E0,4.734654236E-1,3.477268982E-1,9.796228638E0,9.813825912E0
1.916403208E0,4.855902100E-1,3.314108276E-1,9.797276459E0,9.814899745E0
1.926434208E0,5.108876038E-1,3.135978699E-1,9.794282684E0,9.812610410E0
1.936465208E0,5.167254639E-1,2.977308655E-1,9.831405487E0,9.849476266E0
1.946496208E0,5.316943359E-1,2.986289978E-1,9.858050079E0,9.876893718E0
1.956527208E0,5.309458923E-1,2.932402039E-1,9.877509613E0,9.896114870E0
1.966558208E0,5.093907166E-1,2.966830444E-1,9.881102142E0,9.898670581E0
1.976589208E0,4.538562012E-1,3.195854187E-1,9.885742493E0,9.901314303E0
1.986620208E0,4.399351501E-1,3.385958862E-1,9.868528290E0,9.884130752E0
1.996651208E0,4.402345276E-1,3.733236694E-1,9.879904633E0,9.896751616E0
2.006682208E0,4.399351501E-1,3.929328918E-1,9.892478485E0,9.910048929E0
2.016713208E0,4.514611816E-1,4.013154602E-1,9.861642609E0,9.880124809E0
2.026744208E0,4.526586914E-1,4.105961609E-1,9.815239105E0,9.834246681E0
2.036776208E0,4.278103638E-1,3.953279114E-1,9.808054047E0,9.825336129E0
2.046807208E0,4.267625427E-1,3.724255371E-1,9.810748444E0,9.827085635E0
2.056838208E0,4.275109863E-1,3.661386108E-1,9.839638367E0,9.855724545E0
2.066869208E0,4.330494690E-1,3.511697388E-1,9.866282959E0,9.882023652E0
2.076900208E0,4.441264343E-1,3.712280273E-1,9.829309845E0,9.846338942E0
2.086931208E0,4.468208313E-1,3.667373657E-1,9.752519531E0,9.769635733E0
2.096962208E0,4.475692749E-1,3.432362366E-1,9.815538483E0,9.831730523E0
2.106993208E0,4.983137512E-1,3.399430847E-1,9.945019226E0,9.963296909E0
2.117024208E0,5.782475281E-1,3.339555359E-1,1.001686981E1,1.003910242E1
2.127055208E0,5.846841431E-1,3.192860413E-1,9.881850586E0,9.904280394E0
2.137086208E0,4.992118835E-1,3.240760803E-1,9.770033112E0,9.788145116E0
2.147117208E0,4.179309082E-1,3.222798157E-1,9.726174316E0,9.740482399E0
2.157148208E0,3.891906738E-1,3.062631226E-1,9.781409454E0,9.793938809E0
2.167179208E0,4.092489624E-1,2.996768188E-1,9.848020935E0,9.861075360E0
2.177210208E0,4.487667847E-1,3.008743286E-1,9.879305878E0,9.894069012E0
2.187241208E0,5.013075256E-1,3.344046021E-1,9.839189301E0,9.857625564E0
2.197272208E0,4.755610657E-1,3.629951477E-1,9.787097626E0,9.805366069E0
2.207303208E0,4.628375244E-1,3.823049927E-1,9.797875214E0,9.816248488E0
2.217334208E0,4.442761230E-1,4.079017639E-1,9.799671478E0,9.818214003E0
2.227365208E0,4.092489624E-1,4.183799744E-1,9.832602997E0,9.850005493E0
2.237396208E0,4.041595459E-1,4.324507141E-1,9.850266266E0,9.868034458E0
2.247427208E0,4.288581848E-1,4.631369019E-1,9.873617706E0,9.893772877E0
2.257458208E0,4.896318054E-1,4.870870972E-1,9.908794556E0,9.932834575E0
2.267489208E0,5.186714172E-1,4.626878357E-1,9.924062805E0,9.948372864E0
2.277521208E0,5.316943359E-1,4.206253052E-1,9.922715607E0,9.945848859E0
2.287552208E0,5.072950745E-1,3.628454590E-1,9.885293427E0,9.904949836E0
2.297583208E0,4.653822327E-1,3.086581421E-1,9.868677979E0,9.884465363E0
2.307614208E0,4.561015320E-1,2.627037048E-1,9.869576111E0,9.883601290E0
2.317645208E0,4.504133606E-1,2.589614868E-1,9.834848328E0,9.848562071E0
2.327676208E0,4.529580688E-1,2.465373230E-1,9.831704865E0,9.845220780E0
2.337707208E0,4.746629333E-1,2.704875183E-1,9.820478210E0,9.835662697E0
2.347738208E0,4.896318054E-1,2.743794250E-1,9.804162140E0,9.820214796E0
2.357769208E0,5.143304443E-1,3.055146790E-1,9.804162140E0,9.822396362E0
2.367800208E0,5.218148804E-1,3.245251465E-1,9.808652802E0,9.827882637E0
2.377831208E0,5.044509888E-1,3.510200500E-1,9.843679962E0,9.862845486E0
2.387862208E0,4.640350342E-1,3.661386108E-1,9.866582336E0,9.884272001E0
2.397893208E0,4.487667847E-1,3.873944092E-1,9.836195526E0,9.854045285E0
2.407924208E0,4.093986511E-1,4.191284180E-1,9.807155914E0,9.824641623E0
2.417955208E0,3.761677551E-1,4.333488464E-1,9.826615448E0,9.843356367E0
2.427986208E0,3.489244080E-1,4.355941772E-1,9.814490662E0,9.830346763E0
2.438017208E0,3.773652649E-1,4.270619202E-1,9.840087433E0,9.856576846E0
2.448048208E0,4.379891968E-1,3.848497009E-1,9.873168640E0,9.890369196E0
2.458079208E0,4.938230896E-1,3.477268982E-1,9.875713348E0,9.894164410E0
2.468110208E0,5.192701721E-1,3.260220337E-1,9.867630157E0,9.886660549E0
2.478141208E0,5.195695496E-1,3.231779480E-1,9.890831909E0,9.909740277E0
2.488172208E0,5.213658142E-1,3.091072083E-1,9.889634399E0,9.908190457E0
2.498203208E0,5.057981873E-1,3.088078308E-1,9.877808990E0,9.895569945E0
2.508234208E0,4.598437500E-1,2.896476746E-1,9.865983582E0,9.880940445E0
2.518265208E0,4.246669006E-1,2.992277527E-1,9.866732025E0,9.880398781E0
2.528297208E0,4.267625427E-1,3.171903992E-1,9.857601013E0,9.871931612E0
2.538328208E0,4.430786133E-1,3.432362366E-1,9.853709106E0,9.869635906E0
2.548359208E0,4.508624268E-1,3.535647583E-1,9.865534515E0,9.882158481E0
2.558390208E0,4.715194702E-1,3.700305176E-1,9.875413971E0,9.893586523E0
2.568421208E0,4.647834778E-1,3.644920349E-1,9.844877472E0,9.862580320E0
2.578452208E0,4.387376404E-1,3.622467041E-1,9.834249573E0,9.850694293E0
2.588483208E0,4.201762390E-1,3.589535522E-1,9.836195526E0,9.851707372E0
2.598514208E0,4.014651489E-1,3.457809448E-1,9.814640350E0,9.828931983E0
2.608545208E0,4.110452271E-1,3.363505554E-1,9.801467743E0,9.815847380E0
2.618576208E0,4.053570557E-1,3.272195435E-1,9.791588287E0,9.805436663E0
2.628607208E0,4.285588074E-1,3.106040955E-1,9.810748444E0,9.825015144E0
2.638638208E0,4.501139832E-1,2.999761963E-1,9.827064514E0,9.841940118E0
2.648669208E0,4.658312988E-1,3.023712158E-1,9.855655060E0,9.871289876E0
2.658700208E0,4.914280701E-1,2.830613708E-1,9.868977356E0,9.885258689E0
2.668731208E0,5.162763977E-1,2.856060791E-1,9.885592804E0,9.903184197E0
2.678762208E0,4.977149963E-1,2.945874023E-1,9.893226929E0,9.910118113E0
2.688793208E0,4.567002869E-1,3.125500488E-1,9.877509613E0,9.893000497E0
2.698824208E0,4.156855774E-1,3.091072083E-1,9.859397278E0,9.872996326E0
2.708855208E0,3.790118408E-1,2.978805542E-1,9.850116577E0,9.861905464E0
2.718886208E0,3.543132019E-1,3.233276367E-1,9.868528290E0,9.880178602E0
2.728917042E0,3.638932800E-1,3.366499329E-1,9.897567902E0,9.909974867E0
2.738948042E0,3.897894287E-1,3.528163147E-1,9.856852570E0,9.870864082E0
2.748979042E0,3.861968994E-1,3.746708679E-1,9.795629883E0,9.810397092E0
2.759010042E0,3.734733582E-1,3.755690002E-1,9.776918793E0,9.791255052E0
2.769041042E0,3.739224243E-1,3.414399719E-1,9.779313812E0,9.792414303E0
2.779073042E0,3.620970154E-1,3.240760803E-1,9.822424164E0,9.834437249E0
2.789104042E0,3.821553040E-1,3.068618774E-1,9.883197784E0,9.895342608E0
2.799135042E0,4.122427368E-1,3.037184143E-1,9.881551208E0,9.894808903E0
2.809166042E0,4.345463562E-1,2.971321106E-1,9.815688171E0,9.829794113E0
2.819197042E0,4.224215698E-1,2.914439392E-1,9.811047821E0,9.824461252E0
2.829228042E0,4.300556946E-1,2.778222656E-1,9.917177124E0,9.930384445E0
2.839259042E0,4.828958130E-1,2.862048340E-1,1.005548950E1,1.007114545E1
2.849290042E0,5.340893555E-1,2.941383362E-1,9.993218994E0,1.001180277E1
2.859321042E0,4.959187317E-1,2.920426941E-1,9.817334747E0,9.834189639E0
2.869352042E0,4.102967834E-1,2.948867798E-1,9.694889374E0,9.708047262E0
2.879383042E0,3.405418396E-1,2.610571289E-1,9.726174316E0,9.735634874E0
2.889414042E0,3.490740967E-1,2.442919922E-1,9.846973114E0,9.856186423E0
2.899445042E0,3.939807129E-1,2.409988403E-1,9.929601288E0,9.940336160E0
2.909476042E0,4.381388855E-1,2.489323425E-1,9.918823700E0,9.931616011E0
2.919507042E0,4.575984192E-1,2.824626160E-1,9.835746460E0,9.850436024E0
2.929538042E0,4.348457336E-1,3.266207886E-1,9.775571594E0,9.790688022E0
2.939569042E0,4.038601685E-1,3.691323853E-1,9.807455292E0,9.822705384E0
2.949600042E0,3.706292725E-1,4.031117249E-1,9.831255798E0,9.846494589E0
2.959631042E0,3.758683777E-1,4.123924255E-1,9.856702881E0,9.872483792E0
2.969662042E0,3.827540588E-1,4.120930481E-1,9.861792297E0,9.877816999E0
2.979693042E0,4.002676392E-1,4.143383789E-1,9.886490936E0,9.903261761E0
2.989724042E0,4.427792358E-1,4.032614136E-1,9.883796539E0,9.901924422E0
2.999755042E0,4.441264343E-1,3.562591553E-1,9.881401520E0,9.897790909E0
3.009786042E0,4.291575623E-1,3.118016052E-1,9.884395294E0,9.898619438E0
3.019818042E0,3.999682617E-1,2.580633545E-1,9.886940002E0,9.898391481E0
3.029848042E0,3.803590393E-1,2.320175171E-1,9.899513855E0,9.909534787E0
3.039880042E0,3.769161987E-1,2.097138977E-1,9.859996033E0,9.869425895E0
3.049911042E0,3.763174438E-1,2.049238586E-1,9.850266266E0,9.859581843E0
3.059942042E0,3.849993896E-1,2.077679443E-1,9.832902374E0,9.842629788E0
3.069973042E0,4.177812195E-1,2.336640930E-1,9.820777588E0,9.832436752E0
3.080004042E0,4.376898193E-1,2.321672058E-1,9.807305603E0,9.819812482E0
3.090035042E0,4.447251892E-1,2.600093079E-1,9.809101868E0,9.822620057E0
3.100066042E0,4.457730103E-1,2.835104370E-1,9.831405487E0,9.845589144E0
3.110097042E0,4.158352661E-1,3.135978699E-1,9.857002258E0,9.870752561E0
3.120128042E0,4.102967834E-1,3.466790771E-1,9.858349457E0,9.872972392E0
3.130159042E0,3.606001282E-1,3.585044861E-1,9.817484436E0,9.830643853E0
3.140190042E0,3.164419556E-1,3.812571716E-1,9.780062256E0,9.792604877E0
3.150221042E0,2.966830444E-1,3.852987671E-1,9.790091400E0,9.802161271E0
3.160252042E0,2.875520325E-1,3.755690002E-1,9.849817200E0,9.861168141E0
3.170283042E0,3.692820740E-1,3.459306335E-1,9.907597046E0,9.920509890E0
3.180314042E0,4.454736328E-1,3.231779480E-1,9.914632416E0,9.929895603E0
3.190345042E0,4.601431274E-1,3.049159241E-1,9.876012726E0,9.891427237E0
3.200376042E0,4.592449951E-1,2.936892700E-1,9.856553192E0,9.871615885E0
3.210407042E0,4.495152283E-1,2.763253784E-1,9.862690430E0,9.876795136E0
3.220438042E0,4.252656555E-1,2.457888794E-1,9.859846344E0,9.872073388E0
3.230469042E0,4.085005188E-1,2.447410583E-1,9.886940002E0,9.898401561E0
3.240500042E0,3.881428528E-1,2.562670898E-1,9.876611481E0,9.887556930E0
3.250531042E0,3.993695068E-1,2.697390747E-1,9.871072998E0,9.882830430E0
3.260562042E0,3.876937866E-1,2.911445618E-1,9.869725800E0,9.881627345E0
3.270593042E0,3.911366272E-1,2.999761963E-1,9.855355682E0,9.867674965E0
3.280625042E0,3.924838257E-1,3.055146790E-1,9.872719574E0,9.885240238E0
3.290656042E0,4.156855774E-1,3.284170532E-1,9.861492920E0,9.875712373E0
3.300687042E0,4.047583008E-1,2.996768188E-1,9.849817200E0,9.862683932E0
3.310718042E0,3.893403625E-1,2.793191528E-1,9.843829651E0,9.855485138E0
3.320749042E0,3.751199341E-1,2.981799316E-1,9.838440857E0,9.850103793E0
3.330780042E0,3.616479492E-1,2.880010986E-1,9.834399261E0,9.845259911E0
3.340811042E0,3.739224243E-1,2.894979858E-1,9.800719299E0,9.812121373E0
3.350842042E0,3.608995056E-1,2.902464294E-1,9.794132996E0,9.805076878E0
3.360873042E0,3.719764709E-1,2.737806702E-1,9.800419922E0,9.811297213E0
3.370904042E0,3.891906738E-1,2.710862732E-1,9.828561401E0,9.839998799E0
3.380935042E0,4.050576782E-1,2.766247559E-1,9.860594788E0,9.872786969E0
3.390966042E0,4.082011414E-1,2.887495422E-1,9.868228912E0,9.880887933E0
3.400997042E0,4.135899353E-1,2.829116821E-1,9.876461792E0,9.889165444E0
3.411028042E0,4.174818420E-1,2.740800476E-1,9.867181091E0,9.879811418E0
3.421059042E0,4.073030090E-1,2.742297363E-1,9.851463776E0,9.863692828E0
3.431090042E0,3.830534363E-1,2.863545227E-1,9.879904633E0,9.891473318E0
3.441121042E0,3.755690002E-1,2.875520325E-1,9.887239380E0,9.898547409E0
3.451152042E0,3.728746033E-1,3.046165466E-1,9.862391052E0,9.874137126E0
3.461183042E0,3.362008667E-1,3.029699707E-1,9.849817200E0,9.860208958E0
3.471214042E0,3.224295044E-1,3.158432007E-1,9.858199768E0,9.868526758E0
3.481245042E0,3.357518005E-1,3.073109436E-1,9.882000275E0,9.892476875E0
3.491276042E0,3.664379883E-1,3.177891541E-1,9.886041870E0,9.897933653E0
3.501307042E0,3.905378723E-1,3.146456909E-1,9.848619690E0,9.861380813E0
3.511338042E0,3.966751099E-1,3.156935120E-1,9.799222412E0,9.812327625E0
3.521370042E0,3.972738647E-1,3.023712158E-1,9.766440582E0,9.779193040E0
3.531401042E0,3.781137085E-1,2.730322266E-1,9.798174591E0,9.809268163E0
3.541432042E0,3.730242920E-1,2.676434326E-1,9.848769379E0,9.859464408E0
3.551463042E0,3.884422302E-1,2.662962341E-1,9.897118835E0,9.908317834E0
3.561494042E0,4.098477173E-1,2.719844055E-1,9.855355682E0,9.867623133E0
3.571525042E0,4.064048767E-1,2.755769348E-1,9.768386536E0,9.780719967E0
3.581556042E0,3.891906738E-1,2.689906311E-1,9.834548950E0,9.845921917E0
3.591587042E0,3.989204407E-1,2.826123047E-1,9.966275024E0,9.978258620E0
3.601618042E0,4.309538269E-1,2.885998535E-1,1.006956024E1,1.008290903E1
3.611649042E0,4.671784973E-1,2.751278687E-1,9.933044128E0,9.947829751E0
3.621680042E0,4.111949158E-1,2.809657288E-1,9.755363617E0,9.768067480E0
3.631711042E0,3.144960022E-1,2.728825378E-1,9.658515015E0,9.667485966E0
3.641742042E0,2.755769348E-1,2.606080627E-1,9.736802216E0,9.744186810E0
3.651773042E0,3.082090759E-1,2.513273621E-1,9.872869263E0,9.880875759E0
3.661804042E0,3.778143311E-1,2.417472839E-1,9.930649109E0,9.940773468E0
3.671835042E0,4.354444885E-1,2.435435486E-1,9.903256073E0,9.915815963E0
3.681866042E0,4.462220764E-1,2.745291138E-1,9.845925293E0,9.859854221E0
3.691897042E0,4.327500916E-1,3.086581421E-1,9.809251556E0,9.823642837E0
3.701928042E0,4.147874451E-1,3.354524231E-1,9.816137238E0,9.830621914E0
3.711959042E0,4.046086121E-1,3.637435913E-1,9.854158173E0,9.869166673E0
3.721990333E0,3.754193115E-1,3.740721130E-1,9.873917084E0,9.888129660E0
3.732021333E0,3.614982605E-1,3.863465881E-1,9.873018951E0,9.887186045E0
3.742052333E0,3.689826965E-1,4.017645264E-1,9.877958679E0,9.893009180E0
3.752083333E0,3.818559265E-1,3.920347595E-1,9.873767395E0,9.888922478E0
3.762114333E0,3.852987671E-1,3.649411011E-1,9.867031403E0,9.881292721E0
3.772146333E0,3.683839417E-1,3.219804382E-1,9.869725800E0,9.881845247E0
3.782177333E0,3.646417236E-1,2.712359619E-1,9.878557434E0,9.889005487E0
3.792208333E0,3.716770935E-1,2.451901245E-1,9.884395294E0,9.894419255E0
3.802239333E0,3.716770935E-1,2.299218750E-1,9.872569885E0,9.882238819E0
3.812270333E0,3.993695068E-1,2.151026917E-1,9.851014709E0,9.861453036E0
3.822301333E0,4.050576782E-1,2.142045593E-1,9.850266266E0,9.860917849E0
3.832332333E0,4.119433594E-1,2.118095398E-1,9.819729767E0,9.830648672E0
3.842363333E0,4.282594299E-1,2.236349487E-1,9.815089417E0,9.826973033E0
3.852394333E0,4.179309082E-1,2.463876343E-1,9.826615448E0,9.838584465E0
3.862425333E0,4.101470947E-1,2.761756897E-1,9.856553192E0,9.868947993E0
3.872456333E0,3.882925415E-1,2.944377136E-1,9.861193542E0,9.873226562E0
3.882487333E0,3.652404785E-1,3.218307495E-1,9.848170624E0,9.860194738E0
3.892518333E0,3.462300110E-1,3.543132019E-1,9.769284668E0,9.781837046E0
3.902549333E0,3.083587646E-1,3.748205566E-1,9.746082916E0,9.758161086E0
3.912580333E0,2.914439392E-1,3.737727356E-1,9.838291168E0,9.849701454E0
3.922611333E0,3.294648743E-1,3.688330078E-1,9.912387085E0,9.924716752E0
3.932642333E0,4.037104797E-1,3.433859253E-1,9.941127319E0,9.955245272E0
3.942673333E0,4.364923096E-1,3.079096985E-1,9.897418213E0,9.911822295E0
3.952704333E0,4.514611816E-1,2.941383362E-1,9.852511597E0,9.867234634E0
3.962735333E0,4.369413757E-1,2.679428101E-1,9.835596771E0,9.848942835E0
3.972766333E0,4.089495850E-1,2.685415649E-1,9.844278717E0,9.856428247E0
3.982797333E0,3.894900513E-1,2.499801636E-1,9.865085449E0,9.875935576E0
3.992828333E0,3.933819580E-1,2.480342102E-1,9.877958679E0,9.888899737E0
4.002859333E0,3.635939026E-1,2.597099304E-1,9.870324554E0,9.880433016E0
4.012891333E0,3.697311401E-1,2.661465454E-1,9.874366150E0,9.884869345E0
4.022922333E0,3.833528137E-1,2.903961182E-1,9.864037628E0,9.875754534E0
4.032953333E0,3.993695068E-1,2.996768188E-1,9.843230896E0,9.855886397E0
4.042984333E0,3.903881836E-1,3.122506714E-1,9.865085449E0,9.877743383E0
4.053015333E0,3.911366272E-1,3.124003601E-1,9.870025177E0,9.882711108E0
4.063046333E0,3.860472107E-1,2.884501648E-1,9.858499146E0,9.870270581E0
4.073077333E0,3.924838257E-1,2.859054565E-1,9.859846344E0,9.871795957E0
4.083108333E0,3.694317627E-1,2.844085693E-1,9.851912842E0,9.862938442E0
4.093139333E0,3.540138245E-1,2.912942505E-1,9.836195526E0,9.846873644E0
4.103170333E0,3.525169373E-1,2.884501648E-1,9.821076965E0,9.831633865E0
4.113201333E0,3.577560425E-1,2.736309814E-1,9.815538483E0,9.825866832E0
4.123232333E0,3.592529297E-1,2.564167786E-1,9.800569611E0,9.810503398E0
4.133263333E0,3.616479492E-1,2.450404358E-1,9.820927277E0,9.830638160E0
4.143294333E0,3.893403625E-1,2.538720703E-1,9.847272491E0,9.858235768E0
4.153325333E0,4.052073669E-1,2.609074402E-1,9.878707123E0,9.890456012E0
4.163356333E0,4.104464722E-1,2.713856506E-1,9.888586578E0,9.900821228E0
4.173387333E0,4.087998962E-1,2.803669739E-1,9.874366150E0,9.886800790E0
4.183418333E0,4.029620361E-1,2.981799316E-1,9.865235138E0,9.877963049E0
4.193449333E0,3.752696228E-1,3.192860413E-1,9.846823425E0,9.859143088E0
4.203480333E0,3.631448364E-1,3.150947571E-1,9.835147705E0,9.846892366E0
4.213511333E0,3.465293884E-1,2.981799316E-1,9.856253815E0,9.866850214E0
4.223542333E0,3.367996216E-1,3.029699707E-1,9.837243347E0,9.847668834E0
4.233573333E0,3.308120728E-1,3.056643677E-1,9.839338989E0,9.849642586E0
4.243604333E0,3.486250305E-1,3.025209045E-1,9.853260040E0,9.864065680E0
4.253636333E0,3.632945251E-1,3.004252625E-1,9.849817200E0,9.861092085E0
4.263667333E0,3.839515686E-1,2.956352234E-1,9.855655060E0,9.867560775E0
4.273698333E0,4.090992737E-1,2.794688416E-1,9.859397278E0,9.871837708E0
4.283729333E0,4.138893127E-1,2.764750671E-1,9.867929535E0,9.880474489E0
4.293760333E0,4.293072510E-1,2.577639771E-1,9.880054321E0,9.892735738E0
4.303791333E0,4.125421143E-1,2.454895020E-1,9.850865021E0,9.862555336E0
4.313822333E0,3.869453430E-1,2.439926147E-1,9.824070740E0,9.834715298E0
4.323853333E0,3.776646423E-1,2.448907471E-1,9.840686188E0,9.850974911E0
4.333884333E0,3.788621521E-1,2.546205139E-1,9.883197784E0,9.893733703E0
4.343915333E0,3.776646423E-1,2.745291138E-1,9.892478485E0,9.903490667E0
4.353946333E0,3.917353821E-1,2.945874023E-1,9.839937744E0,9.852137492E0
4.363977333E0,3.835025024E-1,3.420387268E-1,9.789043579E0,9.802522066E0
4.374008333E0,3.613485718E-1,3.314108276E-1,9.758806458E0,9.771116078E0
4.384039333E0,3.460803223E-1,3.156935120E-1,9.778715057E0,9.789928608E0
4.394070333E0,3.511697388E-1,2.972817993E-1,9.859397278E0,9.870127220E0
4.404101333E0,3.567082214E-1,2.850073242E-1,9.908944244E0,9.919457947E0
4.414132333E0,3.724255371E-1,2.715353394E-1,9.835297394E0,9.846090953E0
4.424163333E0,3.727249146E-1,2.604583740E-1,9.789642334E0,9.800196909E0
4.434194333E0,3.628454590E-1,2.601589966E-1,9.874515839E0,9.884604321E0
4.444225333E0,3.899391174E-1,2.727328491E-1,1.001642075E1,1.002771760E1
4.454256333E0,4.423301697E-1,2.743794250E-1,1.006551865E1,1.007896848E1
4.464287333E0,4.423301697E-1,2.695893860E-1,9.890831909E0,9.904387425E0
4.474318333E0,3.969744873E-1,2.642005920E-1,9.728269958E0,9.739950055E0
4.484349333E0,3.315605164E-1,2.703378296E-1,9.688752136E0,9.698192248E0
4.494381333E0,2.962339783E-1,2.570155334E-1,9.784852295E0,9.792708818E0
4.504412333E0,3.269201660E-1,2.395019531E-1,9.921069031E0,9.929342813E0
4.514443333E0,4.061054993E-1,2.341131592E-1,9.945019226E0,9.956060368E0
4.524474333E0,4.581971741E-1,2.285746765E-1,9.909393311E0,9.922613910E0
4.534505333E0,4.770579529E-1,2.597099304E-1,9.837243347E0,9.852227678E0
4.544536333E0,4.626878357E-1,2.978805542E-1,9.781559143E0,9.797025678E0
4.554567333E0,4.192781067E-1,3.131488037E-1,9.796827393E0,9.810794222E0
4.564598333E0,4.085005188E-1,3.324586487E-1,9.838141479E0,9.852229656E0
4.574629333E0,3.929328918E-1,3.342549133E-1,9.851613464E0,9.865110768E0
4.584660333E0,3.743714905E-1,3.329077148E-1,9.846374359E0,9.859110993E0
4.594691333E0,4.110452271E-1,3.668870544E-1,9.845027161E0,9.860432246E0
4.604722333E0,4.093986511E-1,3.712280273E-1,9.849218445E0,9.864710917E0
4.614753333E0,3.838018799E-1,3.793112183E-1,9.873318329E0,9.888053181E0
4.624784333E0,3.763174438E-1,3.285667419E-1,9.884694672E0,9.897310729E0
4.634815333E0,3.629951477E-1,2.923420715E-1,9.876012726E0,9.887004436E0
4.644846333E0,3.369493103E-1,2.529739380E-1,9.890532532E0,9.899503241E0
4.654877333E0,3.451821899E-1,2.092648315E-1,9.867929535E0,9.876182249E0
4.664908333E0,3.727249146E-1,2.040257263E-1,9.838291168E0,9.847462794E0
4.674939333E0,3.803590393E-1,1.839674377E-1,9.825867004E0,9.834946843E0
4.684970333E0,4.113446045E-1,2.038760376E-1,9.839638367E0,9.850342786E0
4.695001333E0,4.546046448E-1,2.239343262E-1,9.840237122E0,9.853277555E0
4.705032333E0,4.734654236E-1,2.350112915E-1,9.823322296E0,9.837533265E0
4.715063333E0,4.502636719E-1,2.734812927E-1,9.845176849E0,9.859261463E0
4.725095042E0,4.361929321E-1,2.938389587E-1,9.840087433E0,9.854132448E0
4.735126042E0,3.954776001E-1,3.053649902E-1,9.842781830E0,9.855455568E0
4.745158042E0,3.637435913E-1,3.264710999E-1,9.759704590E0,9.771935656E0
4.755189042E0,3.019221497E-1,3.385958862E-1,9.751022644E0,9.761569892E0
4.765220042E0,2.953358459E-1,3.447331238E-1,9.833650818E0,9.844122744E0
4.775251042E0,3.396437073E-1,3.237767029E-1,9.894274750E0,9.905395602E0
4.785282042E0,3.875440979E-1,3.270698547E-1,9.943971405E0,9.956893713E0
4.795313042E0,4.354444885E-1,2.980302429E-1,9.915680237E0,9.929710393E0
4.805344042E0,4.418811035E-1,2.730322266E-1,9.874066772E0,9.887719663E0
4.815375042E0,4.323010254E-1,2.558180237E-1,9.863588562E0,9.876371113E0
4.825406042E0,4.098477173E-1,2.471360779E-1,9.870623932E0,9.882219801E0
4.835437042E0,4.047583008E-1,2.272274780E-1,9.886940002E0,9.897830278E0
4.845468042E0,4.007167053E-1,2.381547546E-1,9.900262299E0,9.911230254E0
4.855499042E0,4.062551880E-1,2.507286072E-1,9.867031403E0,9.878573622E0
4.865530042E0,4.179309082E-1,2.636018372E-1,9.846374359E0,9.858764638E0
4.875561042E0,4.143383789E-1,2.905458069E-1,9.828262024E0,9.841281805E0
4.885592042E0,4.233197021E-1,2.929408264E-1,9.834548950E0,9.848013351E0
4.895623042E0,4.180805969E-1,2.962339783E-1,9.842931519E0,9.856259272E0
4.905654042E0,4.034111023E-1,2.885998535E-1,9.857451324E0,9.869922847E0
4.915685042E0,4.004173279E-1,2.793191528E-1,9.879904633E0,9.891959805E0
4.925716042E0,4.010160828E-1,2.706372070E-1,9.878707123E0,9.890546639E0
4.935747042E0,3.921844482E-1,2.676434326E-1,9.861492920E0,9.872916705E0
4.945778042E0,3.896397400E-1,2.755769348E-1,9.853858795E0,9.865409010E0
4.955809042E0,3.876937866E-1,2.625540161E-1,9.839488678E0,9.850623256E0
4.965840042E0,3.953279114E-1,2.534230042E-1,9.830207977E0,9.841417390E0
4.975871042E0,3.888912964E-1,2.496807861E-1,9.800270233E0,9.811160664E0
4.985903042E0,3.815565491E-1,2.311193848E-1,9.809550934E0,9.819688951E0
4.995934042E0,3.827540588E-1,2.448907471E-1,9.819430389E0,9.829938215E0
5.005965042E0,4.052073669E-1,2.418969727E-1,9.831854553E0,9.843173833E0
5.015996042E0,4.140390015E-1,2.462379456E-1,9.845176849E0,9.856955342E0
5.026027042E0,3.945794678E-1,2.695893860E-1,9.863289185E0,9.874859236E0
5.036058042E0,3.987707520E-1,2.817141724E-1,9.867929535E0,9.880000723E0
5.046089042E0,3.984713745E-1,2.941383362E-1,9.866732025E0,9.879154703E0
5.056120042E0,3.814068604E-1,2.805166626E-1,9.865983582E0,9.877337335E0
5.066151042E0,4.001179504E-1,2.790197754E-1,9.846823425E0,9.858898416E0
5.076182042E0,3.767665100E-1,2.812651062E-1,9.843380585E0,9.854603209E0
5.086213042E0,3.689826965E-1,2.665956116E-1,9.849667511E0,9.860181110E0
5.096244042E0,3.929328918E-1,2.748284912E-1,9.845326538E0,9.856996581E0
5.106275042E0,3.932322693E-1,2.722837830E-1,9.845775604E0,9.857386435E0
5.116306042E0,3.796105957E-1,2.887495422E-1,9.844129028E0,9.855676376E0
5.126337042E0,3.830534363E-1,2.865042114E-1,9.861642609E0,9.873237034E0
5.136368042E0,3.814068604E-1,2.727328491E-1,9.854158173E0,9.865307278E0
5.146399042E0,3.793112183E-1,2.701881409E-1,9.862540741E0,9.873529688E0
5.156430042E0,3.781137085E-1,2.442919922E-1,9.857151947E0,9.867425858E0
5.166461042E0,3.917353821E-1,2.430944824E-1,9.870025177E0,9.880786838E0
5.176492042E0,3.975732422E-1,2.411485291E-1,9.847871246E0,9.858842994E0
5.186523042E0,4.052073669E-1,2.406994629E-1,9.857301636E0,9.868562447E0
5.196554042E0,3.969744873E-1,2.528242493E-1,9.830507355E0,9.841767306E0
5.206585042E0,4.031117249E-1,2.544708252E-1,9.843230896E0,9.854767828E0
5.216616042E0,4.029620361E-1,2.547702026E-1,9.856852570E0,9.868375187E0
5.226648042E0,4.049079895E-1,2.465373230E-1,9.823921051E0,9.835352355E0
5.236679042E0,3.802093506E-1,2.564167786E-1,9.833201752E0,9.843889750E0
5.246710042E0,3.487747192E-1,2.553689575E-1,9.829459534E0,9.838959896E0
5.256741042E0,3.662882996E-1,2.784210205E-1,9.864037628E0,9.874761957E0
5.266772042E0,3.812571716E-1,2.830613708E-1,9.914632416E0,9.925997013E0
5.276803042E0,3.962260437E-1,3.034190369E-1,9.898016968E0,9.910590199E0
5.286834042E0,4.195774841E-1,3.029699707E-1,9.858798523E0,9.872372784E0
5.296865042E0,3.978726196E-1,2.938389587E-1,9.793234863E0,9.805717365E0
5.306896042E0,3.761677551E-1,2.704875183E-1,9.766590271E0,9.777573891E0
5.316927042E0,3.471281433E-1,2.695893860E-1,9.818681946E0,9.828514208E0
5.326958042E0,3.348536682E-1,2.637515259E-1,9.872120819E0,9.881318804E0
5.336989042E0,3.677851868E-1,2.555186462E-1,9.898466034E0,9.908591502E0
5.347020042E0,3.736230469E-1,2.588117981E-1,9.834099884E0,9.844597415E0
5.357051042E0,3.662882996E-1,2.579136658E-1,9.796977081E0,9.807214003E0
5.367082042E0,3.830534363E-1,2.630030823E-1,9.872270508E0,9.883199155E0
5.377113042E0,4.049079895E-1,2.486329651E-1,1.001357666E1,1.002484346E1
5.387144042E0,4.481680298E-1,2.320175171E-1,1.006342300E1,1.007606914E1
5.397175042E0,4.722679138E-1,2.347119141E-1,9.879904633E0,9.893969993E0
5.407206042E0,3.975732422E-1,2.477348328E-1,9.727072449E0,9.738345622E0
5.417237042E0,3.050656128E-1,2.348616028E-1,9.703721008E0,9.711355539E0
5.427268042E0,2.971321106E-1,2.261796570E-1,9.792785797E0,9.799902979E0
5.437299042E0,3.492237854E-1,2.219883728E-1,9.900411987E0,9.909056141E0
5.447330042E0,4.016148376E-1,2.242337036E-1,9.915829926E0,9.926492751E0
5.457361042E0,4.430786133E-1,2.480342102E-1,9.837991791E0,9.851087356E0
5.467393042E0,4.456233215E-1,2.647993469E-1,9.772428131E0,9.786166278E0
5.477424042E0,4.269122314E-1,3.026705933E-1,9.770182800E0,9.784188034E0
5.487455042E0,3.983216858E-1,3.299139404E-1,9.813293152E0,9.826913343E0
5.497486042E0,3.815565491E-1,3.312611389E-1,9.858499146E0,9.871439852E0
5.507517042E0,3.661386108E-1,3.363505554E-1,9.887389069E0,9.899881402E0
5.517548042E0,3.579057312E-1,3.480262756E-1,9.885742493E0,9.898339428E0
5.527579042E0,3.677851868E-1,3.305126953E-1,9.875563660E0,9.887935183E0
5.537610042E0,3.781137085E-1,3.333567810E-1,9.887688446E0,9.900529255E0
5.547641042E0,3.869453430E-1,2.950364685E-1,9.895472260E0,9.907428751E0
5.557672042E0,3.875440979E-1,2.537223816E-1,9.896370392E0,9.907205075E0
5.567703042E0,3.760180664E-1,2.305206299E-1,9.892478485E0,9.902305788E0
5.577734042E0,3.597019958E-1,2.035766602E-1,9.851014709E0,9.859681526E0
5.587765042E0,3.800596619E-1,1.890568542E-1,9.836195526E0,9.845350693E0
5.597796042E0,3.920347595E-1,1.874102783E-1,9.793534241E0,9.803169222E0
5.607827042E0,4.122427368E-1,1.944456482E-1,9.812245331E0,9.822826050E0
5.617858042E0,4.279600525E-1,2.071691895E-1,9.826765137E0,9.838261123E0
5.627889042E0,4.454736328E-1,2.158511353E-1,9.848919067E0,9.861351087E0
5.637920042E0,4.481680298E-1,2.378553772E-1,9.865235138E0,9.878273842E0
5.647951042E0,4.156855774E-1,2.751278687E-1,9.870474243E0,9.883053760E0
5.657982042E0,3.992198181E-1,2.878514099E-1,9.896370392E0,9.908601406E0
5.668013042E0,3.623963928E-1,3.116519165E-1,9.840087433E0,9.851689132E0
5.678044042E0,3.231779480E-1,3.469784546E-1,9.787696381E0,9.799175398E0
5.688075042E0,2.820135498E-1,3.713777161E-1,9.785451050E0,9.796555788E0
5.698106042E0,2.752775574E-1,3.556604004E-1,9.789792023E0,9.800117341E0
5.708138042E0,3.278182983E-1,3.426374817E-1,9.861043854E0,9.872438967E0
5.718169042E0,3.950285339E-1,3.174897766E-1,9.898166656E0,9.911132653E0
5.728198417E0,4.580474854E-1,2.761756897E-1,9.897567902E0,9.912009427E0
5.738229417E0,4.713697815E-1,2.508782959E-1,9.883197784E0,9.897612229E0
5.748260417E0,4.531077576E-1,2.341131592E-1,9.869276733E0,9.882445995E0
5.758291417E0,4.233197021E-1,2.143542480E-1,9.875713348E0,9.887105818E0
5.768322417E0,3.996688843E-1,1.827699280E-1,9.874216461E0,9.883991642E0
5.778353417E0,3.730242920E-1,2.016307068E-1,9.876761169E0,9.885859258E0
5.788384417E0,3.767665100E-1,2.100132751E-1,9.862840118E0,9.872267915E0
5.798415417E0,3.823049927E-1,2.478845215E-1,9.852960663E0,9.863490136E0
5.808446417E0,3.900888062E-1,2.665956116E-1,9.841734009E0,9.853069105E0
5.818477417E0,4.116439819E-1,2.887495422E-1,9.847871246E0,9.860699526E0
5.828508417E0,3.923341370E-1,2.740800476E-1,9.873168640E0,9.884761249E0
5.838539417E0,3.619473267E-1,2.844085693E-1,9.862091675E0,9.872828688E0
5.848570417E0,3.591032410E-1,2.785707092E-1,9.848769379E0,9.859250228E0
5.858601417E0,3.463796997E-1,2.826123047E-1,9.836943970E0,9.847096794E0
5.868632417E0,3.504212952E-1,2.942880249E-1,9.815239105E0,9.825900428E0
5.878663417E0,3.502716064E-1,2.812651062E-1,9.815538483E0,9.825812738E0
5.888694417E0,3.879931641E-1,2.981799316E-1,9.842632141E0,9.854788553E0
5.898725417E0,4.046086121E-1,2.739303589E-1,9.838740234E0,9.850865717E0
5.908756417E0,4.134402466E-1,2.535726929E-1,9.828411713E0,9.840371372E0
5.918787417E0,4.288581848E-1,2.257305908E-1,9.840386810E0,9.852313750E0
5.928818417E0,4.340972900E-1,2.139051819E-1,9.864187317E0,9.876051200E0
5.938849417E0,4.215234375E-1,1.971400452E-1,9.867480469E0,9.878447095E0
5.948881417E0,4.195774841E-1,2.344125366E-1,9.872420197E0,9.884112253E0
5.958912417E0,3.963757324E-1,2.567161560E-1,9.878258057E0,9.889539885E0
5.968943417E0,3.821553040E-1,2.583627319E-1,9.873767395E0,9.884537245E0
5.978974417E0,3.665876770E-1,2.905458069E-1,9.841135254E0,9.852245758E0
5.989005417E0,3.549119568E-1,2.881507874E-1,9.841734009E0,9.852345998E0
5.999036417E0,3.447331238E-1,2.841091919E-1,9.839937744E0,9.850072780E0
6.009067417E0,3.529660034E-1,2.790197754E-1,9.858349457E0,9.868611404E0
6.019098417E0,3.676354980E-1,2.823129272E-1,9.852062531E0,9.862960638E0
6.029129417E0,3.845503235E-1,2.603086853E-1,9.864935760E0,9.875859311E0
6.039160417E0,3.835025024E-1,2.595602417E-1,9.869127045E0,9.879985542E0
6.049191417E0,3.836521912E-1,2.495310974E-1,9.852810974E0,9.863434436E0
6.059222417E0,3.838018799E-1,2.293231201E-1,9.870324554E0,9.880445323E0
6.069253417E0,3.905378723E-1,2.246827698E-1,9.852511597E0,9.862808268E0
6.079284417E0,3.861968994E-1,2.338137817E-1,9.857301636E0,9.867634593E0
6.089315417E0,3.933819580E-1,2.411485291E-1,9.851763153E0,9.862562507E0
6.099346417E0,3.906875610E-1,2.472857666E-1,9.852810974E0,9.863654045E0
6.109377417E0,3.770658875E-1,2.677931213E-1,9.832153931E0,9.843025082E0
6.119408417E0,3.655398560E-1,2.667453003E-1,9.855954437E0,9.866337229E0
6.129439417E0,3.751199341E-1,2.643502808E-1,9.865833893E0,9.876501123E0
6.139470417E0,3.680845642E-1,2.769241333E-1,9.871222687E0,9.881963902E0
6.149501417E0,3.661386108E-1,2.769241333E-1,9.871522064E0,9.882190664E0
6.159532417E0,3.766168213E-1,2.698887634E-1,9.881251831E0,9.892108871E0
6.169563417E0,3.709286499E-1,2.668949890E-1,9.846673737E0,9.857271665E0
6.179595417E0,3.580554199E-1,2.568658447E-1,9.813891907E0,9.823780235E0
6.189626417E0,3.436853027E-1,2.516267395E-1,9.832303619E0,9.841525800E0
6.199657417E0,3.582051086E-1,2.418969727E-1,9.878258057E0,9.887709911E0
6.209688417E0,4.077520752E-1,2.477348328E-1,9.899364166E0,9.910854918E0
6.219719417E0,4.278103638E-1,2.755769348E-1,9.853110352E0,9.866242849E0
6.229750417E0,4.180805969E-1,2.906954956E-1,9.807006226E0,9.820217226E0
6.239781417E0,4.029620361E-1,3.011737061E-1,9.783954163E0,9.796879251E0
6.249812417E0,3.827540588E-1,2.842588806E-1,9.791438599E0,9.803038999E0
6.259843417E0,3.576063538E-1,2.694396973E-1,9.856852570E0,9.867016906E0
6.269874417E0,3.659889221E-1,2.466870117E-1,9.898316345E0,9.908151636E0
6.279905417E0,3.824546814E-1,2.228865051E-1,9.855355682E0,9.865291967E0
6.289936417E0,3.758683777E-1,2.168989563E-1,9.817484436E0,9.827070919E0
6.299967417E0,3.799099731E-1,2.266287231E-1,9.846224670E0,9.856157082E0
6.309998417E0,4.093986511E-1,2.342628479E-1,9.956096191E0,9.967263301E0
6.320029417E0,4.646337891E-1,2.493814087E-1,1.005474106E1,1.006855965E1
6.330060417E0,4.843927002E-1,2.514770508E-1,9.932894440E0,9.947877610E0
6.340091417E0,4.257147217E-1,2.570155334E-1,9.760003967E0,9.772664296E0
6.350122417E0,3.351530457E-1,2.436932373E-1,9.703421631E0,9.712265714E0
6.360153417E0,2.862048340E-1,2.357597351E-1,9.762099609E0,9.769139401E0
6.370184417E0,3.227288818E-1,2.311193848E-1,9.855056305E0,9.863047444E0
6.380215417E0,3.920347595E-1,2.278262329E-1,9.915081482E0,9.925443911E0
6.390246417E0,4.517605591E-1,2.335144043E-1,9.874815216E0,9.887901301E0
6.400277417E0,4.571493530E-1,2.523751831E-1,9.815837860E0,9.829717781E0
6.410308417E0,4.432283020E-1,2.832110596E-1,9.787247314E0,9.801370814E0
6.420339417E0,3.945794678E-1,3.023712158E-1,9.807455292E0,9.820045856E0
6.430371417E0,3.661386108E-1,3.213816833E-1,9.871522064E0,9.883536388E0
6.440402417E0,3.592529297E-1,3.161425781E-1,9.906100159E0,9.917652401E0
6.450433417E0,3.647914124E-1,3.192860413E-1,9.891580353E0,9.903452844E0
6.460464417E0,3.734733582E-1,3.248245239E-1,9.870773621E0,9.883175866E0
6.470495417E0,4.046086121E-1,3.454815674E-1,9.855205994E0,9.869556769E0
6.480526417E0,4.212240601E-1,3.053649902E-1,9.865983582E0,9.879691772E0
6.490557417E0,3.983216858E-1,2.643502808E-1,9.870025177E0,9.881595935E0
6.500588417E0,3.620970154E-1,2.186952209E-1,9.878856812E0,9.887909473E0
6.510619417E0,3.423381042E-1,1.851649475E-1,9.878108368E0,9.885772927E0
6.520650417E0,3.308120728E-1,1.875599670E-1,9.844877472E0,9.852219436E0
6.530681417E0,3.405418396E-1,1.902543640E-1,9.818382568E0,9.826128522E0
6.540712417E0,3.650907898E-1,1.962419128E-1,9.808353424E0,9.817107469E0
6.550743417E0,3.791615295E-1,2.131567383E-1,9.844278717E0,9.853883636E0
6.560774417E0,4.138893127E-1,2.095642090E-1,9.865833893E0,9.876735287E0
6.570805417E0,4.315525818E-1,2.218386841E-1,9.869426422E0,9.881347476E0
6.580836417E0,4.453239441E-1,2.321672058E-1,9.879904633E0,9.892660440E0
6.590867417E0,4.188290405E-1,2.450404358E-1,9.878557434E0,9.890468116E0
6.600898417E0,3.947291565E-1,2.814147949E-1,9.871821442E0,9.883717113E0
6.610929417E0,3.638932800E-1,3.055146790E-1,9.783056030E0,9.794587425E0
6.620960417E0,3.161425781E-1,3.303630066E-1,9.783954163E0,9.794633475E0
6.630991417E0,2.776725769E-1,3.499722290E-1,9.771230621E0,9.781438058E0
6.641022417E0,3.073109436E-1,3.420387268E-1,9.810299377E0,9.821069411E0
6.651053417E0,3.556604004E-1,3.332070923E-1,9.883497162E0,9.895505921E0
6.661085417E0,4.459226990E-1,3.094065857E-1,9.898466034E0,9.913334924E0
6.671116417E0,4.761598206E-1,2.758763123E-1,9.896220703E0,9.911509477E0
6.681147417E0,4.715194702E-1,2.519261169E-1,9.874964905E0,9.889425122E0
6.691178417E0,4.349954224E-1,2.197430420E-1,9.865235138E0,9.877265429E0
6.701209417E0,4.083508301E-1,1.845661926E-1,9.865534515E0,9.875706879E0
6.711240417E0,3.869453430E-1,1.898052979E-1,9.873318329E0,9.882720656E0
6.721271417E0,3.826043701E-1,1.884580994E-1,9.870773621E0,9.879983524E0
6.731302708E0,3.812571716E-1,2.267784119E-1,9.842332764E0,9.852324584E0
6.741333708E0,3.933819580E-1,2.519261169E-1,9.851463776E0,9.862532872E0
6.751364708E0,4.155358887E-1,2.881507874E-1,9.858349457E0,9.871309688E0
6.761395708E0,4.119433594E-1,2.924917603E-1,9.864935760E0,9.877864462E0
6.771426708E0,3.968247986E-1,2.924917603E-1,9.865085449E0,9.877395014E0
6.781457708E0,3.764671326E-1,2.637515259E-1,9.860744476E0,9.871452477E0
6.791488708E0,3.511697388E-1,2.396516418E-1,9.842033386E0,9.851211817E0
6.801519708E0,3.492237854E-1,2.375559998E-1,9.829908600E0,9.838978259E0
6.811550708E0,3.567082214E-1,2.299218750E-1,9.833800507E0,9.842953684E0
6.821581708E0,3.688330078E-1,2.118095398E-1,9.851463776E0,9.860640932E0
6.831612708E0,3.695814514E-1,2.092648315E-1,9.869127045E0,9.878261529E0
6.841643708E0,3.808081055E-1,2.194436646E-1,9.864486694E0,9.874273040E0
6.851674708E0,3.791615295E-1,2.321672058E-1,9.847272491E0,9.857303921E0
6.861705708E0,3.876937866E-1,2.471360779E-1,9.837842102E0,9.848579590E0
6.871736708E0,3.905378723E-1,2.621049500E-1,9.845326538E0,9.856554848E0
6.881767708E0,4.047583008E-1,2.703378296E-1,9.831854553E0,9.843895356E0
6.891799708E0,3.987707520E-1,2.823129272E-1,9.848769379E0,9.860881146E0
6.901830708E0,4.026626587E-1,2.835104370E-1,9.868827667E0,9.881106968E0
6.911861708E0,3.847000122E-1,2.571652222E-1,9.859397278E0,9.870250389E0
6.921892708E0,3.640429688E-1,2.390528870E-1,9.850266266E0,9.859889405E0
6.931923708E0,3.552113342E-1,2.143542480E-1,9.852511597E0,9.861242701E0
6.941954708E0,3.592529297E-1,2.323168945E-1,9.854607239E0,9.863889580E0
6.951985708E0,3.647914124E-1,2.372566223E-1,9.851164398E0,9.860770937E0
6.962016708E0,3.541635132E-1,2.448907471E-1,9.836195526E0,9.845615557E0
6.972047708E0,3.622467041E-1,2.713856506E-1,9.832902374E0,9.843314581E0
6.982078708E0,3.882925415E-1,2.823129272E-1,9.847422180E0,9.859117368E0
6.992109708E0,3.980223083E-1,2.683918762E-1,9.840835876E0,9.852538084E0
7.002140708E0,4.007167053E-1,2.421963501E-1,9.858050079E0,9.869163304E0
7.012171708E0,4.129911804E-1,2.411485291E-1,9.880653076E0,9.892220152E0
7.022202708E0,4.113446045E-1,2.168989563E-1,9.874665527E0,9.885609178E0
7.032233708E0,3.921844482E-1,2.086660767E-1,9.864187317E0,9.874185617E0
7.042264708E0,3.927832031E-1,2.119592285E-1,9.860145721E0,9.870242095E0
7.052295708E0,3.823049927E-1,2.200424194E-1,9.844727783E0,9.854605061E0
7.062326708E0,3.659889221E-1,2.185455322E-1,9.831854553E0,9.841091098E0
7.072357708E0,3.625460815E-1,2.314187622E-1,9.818981323E0,9.828397048E0
7.082388708E0,3.772155762E-1,2.333647156E-1,9.842632141E0,9.852621892E0
7.092419708E0,3.930825806E-1,2.306703186E-1,9.849667511E0,9.860206529E0
7.102450708E0,3.987707520E-1,2.251318359E-1,9.822124786E0,9.832793996E0
7.112481708E0,3.873944092E-1,2.348616028E-1,9.838291168E0,9.848716034E0
7.122512708E0,3.797602844E-1,2.192939758E-1,9.868827667E0,9.878566052E0
7.132544708E0,3.620970154E-1,2.335144043E-1,9.890382843E0,9.899763432E0
7.142575708E0,3.781137085E-1,2.547702026E-1,9.888287201E0,9.898792937E0
7.152606708E0,3.769161987E-1,2.812651062E-1,9.852062531E0,9.863280995E0
7.162637708E0,3.652404785E-1,2.983296204E-1,9.815089417E0,9.826412439E0
7.172668708E0,3.390449524E-1,2.938389587E-1,9.781708832E0,9.791992672E0
7.182699708E0,3.412902832E-1,2.778222656E-1,9.814191284E0,9.824052872E0
7.192730708E0,3.567082214E-1,2.305206299E-1,9.871522064E0,9.880654249E0
7.202761708E0,3.606001282E-1,2.312690735E-1,9.890981598E0,9.900254280E0
7.212792708E0,3.841012573E-1,2.170486450E-1,9.861193542E0,9.871057794E0
7.222823708E0,3.933819580E-1,2.106120300E-1,9.817783813E0,9.827918691E0
7.232854708E0,3.948788452E-1,2.050735474E-1,9.856403503E0,9.866441835E0
7.242885708E0,4.117936707E-1,1.986369324E-1,9.932595062E0,9.943111954E0
7.252916708E0,4.546046448E-1,2.112107849E-1,1.005219635E1,1.006468712E1
7.262947708E0,4.923262024E-1,2.088157654E-1,9.940229187E0,9.954604231E0
7.272978708E0,4.324507141E-1,2.112107849E-1,9.791288910E0,9.803109819E0
7.283009708E0,3.444337463E-1,2.139051819E-1,9.721533966E0,9.729985236E0
7.293040708E0,2.748284912E-1,2.094145203E-1,9.751920776E0,9.758039966E0
7.303071708E0,3.020718384E-1,2.112107849E-1,9.838740234E0,9.845642020E0
7.313102708E0,3.604504395E-1,2.140548706E-1,9.883646851E0,9.892533501E0
7.323133708E0,4.162843323E-1,2.155517578E-1,9.858798523E0,9.869937362E0
7.333164708E0,4.483177185E-1,2.525248718E-1,9.791288910E0,9.804799646E0
7.343195708E0,4.242178345E-1,3.097059631E-1,9.749974823E0,9.764112228E0
7.353227708E0,4.102967834E-1,3.182382202E-1,9.781409454E0,9.795181975E0
7.363258708E0,3.752696228E-1,3.064128113E-1,9.848020935E0,9.859930651E0
7.373289708E0,3.457809448E-1,3.077600098E-1,9.893077240E0,9.903901149E0
7.383320708E0,3.472778320E-1,2.945874023E-1,9.915530548E0,9.925982555E0
7.393351708E0,3.829037476E-1,2.932402039E-1,9.909692688E0,9.921421988E0
7.403382708E0,3.971241760E-1,2.957849121E-1,9.922266541E0,9.934614720E0
7.413413708E0,4.089495850E-1,2.731819153E-1,9.918823700E0,9.931008595E0
7.423444708E0,4.071533203E-1,2.396516418E-1,9.915829926E0,9.927078616E0
7.433475708E0,3.983216858E-1,2.290237427E-1,9.890981598E0,9.901647793E0
7.443506708E0,3.920347595E-1,1.942959595E-1,9.846823425E0,9.856539643E0
7.453537708E0,3.812571716E-1,1.683998108E-1,9.816885681E0,9.825729490E0
7.463568708E0,3.821553040E-1,1.432521057E-1,9.805209961E0,9.813699925E0
7.473599708E0,4.020639038E-1,1.383123779E-1,9.797725525E0,9.806947087E0
7.483630708E0,4.135899353E-1,1.597178650E-1,9.834399261E0,9.844388009E0
7.493661708E0,4.270619202E-1,1.929487610E-1,9.848470001E0,9.859613201E0
7.503692708E0,4.372407532E-1,1.917512512E-1,9.859996033E0,9.871548500E0
7.513723708E0,4.314028931E-1,2.254312134E-1,9.889035645E0,9.901007710E0
7.523754708E0,4.119433594E-1,2.493814087E-1,9.877958679E0,9.889689383E0
7.533785708E0,3.851490784E-1,2.513273621E-1,9.834399261E0,9.845146728E0
7.543816708E0,3.444337463E-1,3.016227722E-1,9.818532257E0,9.829200709E0
7.553847708E0,3.113525391E-1,3.207829285E-1,9.816586304E0,9.826759830E0
7.563878708E0,2.974314880E-1,3.230282593E-1,9.809401245E0,9.819224284E0
7.573909708E0,3.248245239E-1,3.121009827E-1,9.809101868E0,9.819439772E0
7.583941708E0,3.674858093E-1,2.805166626E-1,9.836644592E0,9.847502844E0
7.593972708E0,4.123924255E-1,2.505789185E-1,9.885592804E0,9.897363406E0
7.604003708E0,4.522096252E-1,2.242337036E-1,9.901459808E0,9.914316953E0
7.614034708E0,4.623884583E-1,2.085163879E-1,9.897567902E0,9.910556621E0
7.624065708E0,4.830455017E-1,1.854643250E-1,9.894125061E0,9.907645568E0
7.634096708E0,4.463717651E-1,1.808239746E-1,9.883497162E0,9.895224162E0
7.644127708E0,4.153862000E-1,1.989363098E-1,9.887089691E0,9.897811067E0
7.654158708E0,4.085005188E-1,2.020797729E-1,9.843380585E0,9.853925626E0
7.664189708E0,3.957769775E-1,2.231858826E-1,9.843979340E0,9.854459934E0
7.674220708E0,3.932322693E-1,2.324665833E-1,9.833351440E0,9.843956160E0
7.684251708E0,3.942800903E-1,2.306703186E-1,9.846823425E0,9.857413310E0
7.694282708E0,4.008663940E-1,2.257305908E-1,9.856104126E0,9.866835192E0
7.704313708E0,4.013154602E-1,2.282752991E-1,9.858798523E0,9.869603438E0
7.714344708E0,3.990701294E-1,2.474354553E-1,9.842632141E0,9.853826096E0
7.724375708E0,3.787124634E-1,2.529739380E-1,9.832153931E0,9.842696270E0
7.734406542E0,3.600013733E-1,2.535726929E-1,9.820478210E0,9.830345486E0
7.744437542E0,3.767665100E-1,2.501298523E-1,9.814939728E0,9.825352910E0
7.754468542E0,3.808081055E-1,2.251318359E-1,9.835596771E0,9.845540260E0
7.764499542E0,4.026626587E-1,2.221380615E-1,9.850565643E0,9.861294338E0
7.774530542E0,4.123924255E-1,1.990859985E-1,9.839788055E0,9.850438149E0
7.784561542E0,4.165837097E-1,2.034269714E-1,9.827214203E0,9.838143296E0
7.794592542E0,4.167333984E-1,1.977388000E-1,9.819729767E0,9.830557464E0
7.804623542E0,3.972738647E-1,2.088157654E-1,9.836494904E0,9.846728519E0
7.814655542E0,3.947291565E-1,2.341131592E-1,9.835447083E0,9.846148455E0
7.824686542E0,3.730242920E-1,2.326162720E-1,9.834548950E0,9.844369482E0
7.834717542E0,3.718267822E-1,2.393522644E-1,9.852960663E0,9.862878813E0
7.844748542E0,3.646417236E-1,2.529739380E-1,9.868528290E0,9.878502417E0
7.854779542E0,3.592529297E-1,2.522254944E-1,9.871222687E0,9.880977568E0
7.864810542E0,3.628454590E-1,2.393522644E-1,9.868378601E0,9.877947284E0
7.874841542E0,3.832031250E-1,2.442919922E-1,9.869127045E0,9.879584598E0
7.884872542E0,3.902384949E-1,2.547702026E-1,9.854607239E0,9.865621003E0
7.894903542E0,3.782633972E-1,2.543211365E-1,9.844129028E0,9.854675985E0
7.904934542E0,3.908372498E-1,2.523751831E-1,9.837093658E0,9.848089085E0
7.914965542E0,4.058061218E-1,2.489323425E-1,9.835746460E0,9.847261261E0
7.924996542E0,3.996688843E-1,2.408491516E-1,9.842332764E0,9.853388136E0
7.935027542E0,4.096980286E-1,2.231858826E-1,9.840536499E0,9.851589872E0
7.945058542E0,4.186793518E-1,2.228865051E-1,9.851613464E0,9.863024822E0
7.955089542E0,4.284091187E-1,2.186952209E-1,9.854457550E0,9.866189517E0
7.965120542E0,4.252656555E-1,2.136058044E-1,9.865684204E0,9.877155620E0
7.975151542E0,4.201762390E-1,2.049238586E-1,9.867630157E0,9.878697626E0
7.985182542E0,4.059558105E-1,2.080673218E-1,9.843081207E0,9.853646015E0
7.995213542E0,3.855981445E-1,2.104623413E-1,9.845176849E0,9.854972731E0
8.005244542E0,3.734733582E-1,2.073188782E-1,9.842931519E0,9.852195915E0
8.015275542E0,3.502716064E-1,2.299218750E-1,9.871971130E0,9.880858681E0
8.025306542E0,3.710783386E-1,2.544708252E-1,9.883048096E0,9.893285309E0
8.035337542E0,4.055067444E-1,2.836601257E-1,9.856852570E0,9.869267519E0
8.045369542E0,4.085005188E-1,2.944377136E-1,9.820029144E0,9.832931335E0
8.055400542E0,3.971241760E-1,2.905458069E-1,9.789193268E0,9.801552393E0
8.065431542E0,3.836521912E-1,2.736309814E-1,9.817933502E0,9.829236042E0
8.075462542E0,3.646417236E-1,2.436932373E-1,9.860744476E0,9.870492977E0
8.085493542E0,3.502716064E-1,2.264790344E-1,9.876312103E0,9.885116272E0
8.095524542E0,3.758683777E-1,2.225871277E-1,9.847272491E0,9.856956812E0
8.105555542E0,3.736230469E-1,2.173480225E-1,9.783056030E0,9.792600249E0
8.115586542E0,3.851490784E-1,2.230361938E-1,9.830357666E0,9.840427674E0
8.125617542E0,4.201762390E-1,2.290237427E-1,9.964179382E0,9.975663923E0
8.135648542E0,4.843927002E-1,2.323168945E-1,1.005878265E1,1.007311848E1
8.145679542E0,5.201683044E-1,2.224374390E-1,9.951904907E0,9.967971948E0
8.155710542E0,4.526586914E-1,2.219883728E-1,9.792486420E0,9.805456084E0
8.165741542E0,3.534150696E-1,2.233355713E-1,9.732461243E0,9.741436384E0
8.175772542E0,2.978805542E-1,2.073188782E-1,9.766889648E0,9.773630203E0
8.185803542E0,3.156935120E-1,2.079176331E-1,9.848020935E0,9.855273130E0
8.195834542E0,3.564088440E-1,1.859133911E-1,9.891131287E0,9.899296398E0
8.205865542E0,4.131408691E-1,1.995350647E-1,9.848769379E0,9.859450182E0
8.215896542E0,4.504133606E-1,2.486329651E-1,9.781259766E0,9.794780914E0
8.225927542E0,4.592449951E-1,2.821632385E-1,9.751771088E0,9.766655590E0
8.235958542E0,4.330494690E-1,3.246748352E-1,9.777667236E0,9.792636120E0
8.245989542E0,3.983216858E-1,3.231779480E-1,9.850565643E0,9.863911377E0
8.256020542E0,3.728746033E-1,3.131488037E-1,9.892029419E0,9.904006445E0
8.266052542E0,3.652404785E-1,3.076103210E-1,9.917177124E0,9.928666921E0
8.276083542E0,3.748205566E-1,3.049159241E-1,9.924811249E0,9.936565931E0
8.286114542E0,3.908372498E-1,3.267704773E-1,9.904603271E0,9.917696238E0
8.296145542E0,4.020639038E-1,2.960842896E-1,9.894424438E0,9.907015507E0
8.306176542E0,4.107458496E-1,2.495310974E-1,9.902058563E0,9.913714829E0
8.316207542E0,3.823049927E-1,2.267784119E-1,9.881700897E0,9.891693393E0
8.326238542E0,3.854484558E-1,1.927990723E-1,9.851014709E0,9.860437759E0
8.336269542E0,3.775149536E-1,1.654060364E-1,9.813891907E0,9.822543003E0
8.346300542E0,3.661386108E-1,1.658551025E-1,9.802365875E0,9.810603557E0
8.356331542E0,3.725752258E-1,1.718426514E-1,9.806407471E0,9.814986993E0
8.366362542E0,3.995191956E-1,1.905537415E-1,9.828262024E0,9.838224470E0
8.376393542E0,4.180805969E-1,2.074685669E-1,9.858050079E0,9.869092459E0
8.386424542E0,4.327500916E-1,2.222877502E-1,9.873468018E0,9.885446635E0
8.396455542E0,4.418811035E-1,2.344125366E-1,9.873917084E0,9.886579121E0
8.406486542E0,4.117936707E-1,2.475851440E-1,9.875713348E0,9.887395338E0
8.416517542E0,4.019142151E-1,2.725831604E-1,9.835896149E0,9.847877419E0
8.426548542E0,3.713777161E-1,3.126997375E-1,9.793683929E0,9.805709941E0
8.436579542E0,3.255729675E-1,3.279679871E-1,9.796378326E0,9.807272254E0
8.446610542E0,3.032693481E-1,3.436853027E-1,9.801467743E0,9.812179258E0
8.456641542E0,3.198847961E-1,3.248245239E-1,9.794582062E0,9.805186129E0
8.466672542E0,3.646417236E-1,2.917433167E-1,9.855804749E0,9.866861963E0
8.476703542E0,4.378395081E-1,2.586621094E-1,9.880802765E0,9.893880573E0
8.486735542E0,4.851411438E-1,2.329156494E-1,9.915231171E0,9.929824812E0
8.496766542E0,4.941224670E-1,2.160008240E-1,9.895771637E0,9.910454564E0
8.506797542E0,4.773573303E-1,2.095642090E-1,9.894424438E0,9.908149280E0
8.516828542E0,4.385879517E-1,2.064207458E-1,9.899663544E0,9.911523959E0
8.526859542E0,4.207749939E-1,2.028282166E-1,9.876761169E0,9.887800669E0
8.536890542E0,3.776646423E-1,2.115101624E-1,9.863887939E0,9.873381002E0
8.546921542E0,3.728746033E-1,2.456391907E-1,9.853110352E0,9.863222480E0
8.556952542E0,3.760180664E-1,2.600093079E-1,9.849218445E0,9.859822432E0
8.566983542E0,4.026626587E-1,2.604583740E-1,9.863588562E0,9.875239496E0
8.577014542E0,4.372407532E-1,2.601589966E-1,9.870174866E0,9.883279519E0
8.587045542E0,4.327500916E-1,2.619552612E-1,9.860594788E0,9.873561807E0
8.597076542E0,4.140390015E-1,2.540217590E-1,9.849517822E0,9.861488563E0
8.607107542E0,3.824546814E-1,2.453398132E-1,9.834099884E0,9.844591598E0
8.617138542E0,3.776646423E-1,2.314187622E-1,9.815837860E0,9.825826078E0
8.627169542E0,3.778143311E-1,2.272274780E-1,9.819879456E0,9.829771539E0
8.637200542E0,3.722758484E-1,2.351609802E-1,9.845027161E0,9.854869344E0
8.647231542E0,3.815565491E-1,2.365081787E-1,9.856253815E0,9.866471547E0
8.657262542E0,3.996688843E-1,2.291734314E-1,9.840985565E0,9.851763932E0
8.667293542E0,3.996688843E-1,2.281256104E-1,9.837243347E0,9.848001482E0
8.677324542E0,4.105961609E-1,2.347119141E-1,9.834998016E0,9.846363028E0
8.687355542E0,4.222718811E-1,2.222877502E-1,9.861642609E0,9.873181874E0
8.697386542E0,4.207749939E-1,2.377056885E-1,9.863438873E0,9.875271237E0
8.707417542E0,3.983216858E-1,2.480342102E-1,9.864786072E0,9.875939721E0
8.717449542E0,3.858975220E-1,2.526745605E-1,9.860145721E0,9.870928780E0
8.727480583E0,3.758683777E-1,2.541714478E-1,9.848769379E0,9.859215914E0
8.737511583E0,3.623963928E-1,2.492317200E-1,9.846524048E0,9.856342294E0
8.747542583E0,3.532653809E-1,2.462379456E-1,9.861343231E0,9.870740594E0
8.757573583E0,3.796105957E-1,2.516267395E-1,9.863738251E0,9.874246933E0
8.767604583E0,4.022135925E-1,2.640509033E-1,9.849517822E0,9.861262596E0
8.777635583E0,4.032614136E-1,2.475851440E-1,9.831854553E0,9.843235349E0
8.787666583E0,4.131408691E-1,2.433938599E-1,9.854457550E0,9.866116741E0
8.797697583E0,4.079017639E-1,2.489323425E-1,9.857451324E0,9.869027195E0
8.807728583E0,4.073030090E-1,2.303709412E-1,9.856403503E0,9.867505082E0
8.817759583E0,3.984713745E-1,2.079176331E-1,9.848769379E0,9.859019599E0
8.827790583E0,3.852987671E-1,2.201921082E-1,9.845326538E0,9.855323148E0
8.837821583E0,3.805087280E-1,2.101629639E-1,9.847571869E0,9.857161208E0
8.847852583E0,3.844006348E-1,2.160008240E-1,9.886341248E0,9.896169131E0
8.857883583E0,3.984713745E-1,2.362088013E-1,9.892927551E0,9.903766433E0
8.867914583E0,4.207749939E-1,2.528242493E-1,9.849817200E0,9.862041906E0
8.877945583E0,4.161346436E-1,2.802172852E-1,9.808952179E0,9.821773395E0
8.887976583E0,4.046086121E-1,2.773731995E-1,9.779912567E0,9.792207812E0
8.898007583E0,3.908372498E-1,2.712359619E-1,9.803413696E0,9.814949964E0
8.908038583E0,3.637435913E-1,2.463876343E-1,9.857002258E0,9.866788220E0
8.918069583E0,3.716770935E-1,2.320175171E-1,9.866282959E0,9.876007058E0
8.928101583E0,3.805087280E-1,2.224374390E-1,9.807754669E0,9.817653333E0
8.938132583E0,3.766168213E-1,2.341131592E-1,9.805808716E0,9.815830773E0
8.948163583E0,3.829037476E-1,2.369572449E-1,9.904902649E0,9.915132904E0
8.958194583E0,4.303550720E-1,2.406994629E-1,1.002151016E1,1.003363382E1
8.968225583E0,4.870870972E-1,2.493814087E-1,1.005429199E1,1.006917238E1
8.978256583E0,4.790039062E-1,2.433938599E-1,9.884844360E0,9.899436011E0
8.988287583E0,4.022135925E-1,2.281256104E-1,9.752369843E0,9.763326002E0
8.998318583E0,3.174897766E-1,2.246827698E-1,9.739945679E0,9.747708650E0
9.008349583E0,3.002755737E-1,2.243833923E-1,9.807155914E0,9.814317116E0
9.018380583E0,3.372486877E-1,1.901046753E-1,9.886341248E0,9.893918320E0
9.028411583E0,4.068539429E-1,1.960922241E-1,9.907597046E0,9.917885940E0
9.038442583E0,4.465214539E-1,2.109114075E-1,9.820777588E0,9.833185520E0
9.048473583E0,4.776567078E-1,2.417472839E-1,9.768236847E0,9.782895726E0
9.058504583E0,4.511618042E-1,2.709365845E-1,9.760902100E0,9.775078690E0
9.068535583E0,4.203259277E-1,2.883004761E-1,9.802964630E0,9.816206324E0
9.078566583E0,3.839515686E-1,2.974314880E-1,9.892179108E0,9.904094698E0
9.088597583E0,3.670367432E-1,2.947370911E-1,9.923164673E0,9.934323482E0
9.098628583E0,3.601510620E-1,2.978805542E-1,9.896969147E0,9.907998784E0
9.108659583E0,3.781137085E-1,3.305126953E-1,9.878108368E0,9.890866168E0
9.118690583E0,4.046086121E-1,3.370989990E-1,9.867181091E0,9.881224952E0
9.128721583E0,4.065545654E-1,3.110531616E-1,9.871971130E0,9.885234174E0
9.138752583E0,4.082011414E-1,2.630030823E-1,9.864935760E0,9.876879890E0
9.148784583E0,3.867956543E-1,2.092648315E-1,9.842482452E0,9.852302445E0
9.158815583E0,3.736230469E-1,1.872605896E-1,9.854756927E0,9.863614693E0
9.168846583E0,3.653901672E-1,1.742376709E-1,9.845775604E0,9.854093870E0
9.178877583E0,3.860472107E-1,1.450483704E-1,9.830207977E0,9.838854626E0
9.188908583E0,3.820056152E-1,1.537303162E-1,9.830806732E0,9.839426930E0
9.198939583E0,4.041595459E-1,1.686991882E-1,9.844727783E0,9.854464444E0
9.208970583E0,4.183799744E-1,1.901046753E-1,9.867779846E0,9.878474613E0
9.219001583E0,4.330494690E-1,2.188449097E-1,9.863588562E0,9.875515392E0
9.229032583E0,4.520599365E-1,2.433938599E-1,9.879006500E0,9.892338863E0
9.239063583E0,4.288581848E-1,2.661465454E-1,9.881700897E0,9.894582657E0
9.249094583E0,3.900888062E-1,2.888992310E-1,9.833950195E0,9.845923445E0
9.259125583E0,3.620970154E-1,3.188369751E-1,9.777068481E0,9.788965183E0
9.269156583E0,3.203338623E-1,3.285667419E-1,9.784702606E0,9.795456854E0
9.279187583E0,3.086581421E-1,3.356021118E-1,9.787097626E0,9.797712925E0
9.289218583E0,3.354524231E-1,3.255729675E-1,9.834399261E0,9.845503284E0
9.299249583E0,4.056564331E-1,2.829116821E-1,9.891730042E0,9.904085994E0
9.309280583E0,4.677772522E-1,2.487826538E-1,9.902807007E0,9.916970050E0
9.319311583E0,4.944218445E-1,2.198927307E-1,9.891430664E0,9.906220589E0
9.329342583E0,4.656816101E-1,2.095642090E-1,9.869426422E0,9.882628923E0
9.339373583E0,4.516108704E-1,1.902543640E-1,9.868228912E0,9.880389211E0
9.349404583E0,4.198768616E-1,1.922003174E-1,9.867031403E0,9.877831049E0
9.359436583E0,3.986210632E-1,2.052232361E-1,9.880353699E0,9.890520944E0
9.369467583E0,3.782633972E-1,2.157014465E-1,9.864935760E0,9.874541401E0
9.379498583E0,3.863465881E-1,2.275268555E-1,9.851164398E0,9.861362591E0
9.389529583E0,4.038601685E-1,2.607577515E-1,9.869725800E0,9.881426263E0
9.399560583E0,4.195774841E-1,2.775228882E-1,9.864187317E0,9.877006411E0
9.409591583E0,4.179309082E-1,2.603086853E-1,9.872120819E0,9.884391550E0
9.419622583E0,3.945794678E-1,2.610571289E-1,9.854906616E0,9.866257051E0
9.429653583E0,3.826043701E-1,2.531236267E-1,9.844428406E0,9.855111786E0
9.439684583E0,3.754193115E-1,2.448907471E-1,9.817933502E0,9.828160021E0
9.449715583E0,3.680845642E-1,2.501298523E-1,9.817185059E0,9.827266846E0
9.459746583E0,3.809577942E-1,2.432441711E-1,9.818681946E0,9.829079902E0
9.469777583E0,3.942800903E-1,2.240840149E-1,9.842183075E0,9.852625950E0
9.479808583E0,4.125421143E-1,2.300715637E-1,9.845775604E0,9.857100039E0
9.489839583E0,4.222718811E-1,2.173480225E-1,9.863887939E0,9.875314627E0
9.499870583E0,4.144880676E-1,2.170486450E-1,9.862540741E0,9.873632581E0
9.509901583E0,4.076023865E-1,2.028282166E-1,9.874515839E0,9.885005920E0
9.519932583E0,3.921844482E-1,2.261796570E-1,9.854756927E0,9.865150783E0
9.529963583E0,3.845503235E-1,2.309696960E-1,9.842781830E0,9.852998534E0
9.539994583E0,3.662882996E-1,2.411485291E-1,9.835447083E0,9.845219096E0
9.550025583E0,3.619473267E-1,2.592608643E-1,9.856702881E0,9.866752948E0
9.560056583E0,3.779640198E-1,2.475851440E-1,9.842781830E0,9.853147180E0
9.570087583E0,3.983216858E-1,2.442919922E-1,9.866282959E0,9.877341655E0
9.580119583E0,3.897894287E-1,2.369572449E-1,9.898166656E0,9.908672348E0
9.590150583E0,3.990701294E-1,2.357597351E-1,9.893825684E0,9.904676990E0
9.600181583E0,4.011657715E-1,2.221380615E-1,9.860145721E0,9.870803055E0
9.610212583E0,3.905378723E-1,2.041754150E-1,9.845027161E0,9.854885450E0
9.620243583E0,3.662882996E-1,1.992356873E-1,9.846074982E0,9.854900026E0
9.630274583E0,3.739224243E-1,2.100132751E-1,9.870773621E0,9.880085800E0
9.640305583E0,4.032614136E-1,2.392025757E-1,9.892478485E0,9.903583605E0
9.650336583E0,4.038601685E-1,2.418969727E-1,9.846973114E0,9.858219753E0
9.660367583E0,4.077520752E-1,2.537223816E-1,9.812395020E0,9.824140310E0
9.670398583E0,3.923341370E-1,2.600093079E-1,9.800120544E0,9.811416493E0
9.680429583E0,3.718267822E-1,2.466870117E-1,9.818532257E0,9.828666508E0
9.690460583E0,3.785627747E-1,2.332150269E-1,9.859546967E0,9.869567640E0
9.700491583E0,3.772155762E-1,2.248324585E-1,9.871372375E0,9.881135249E0
9.710522583E0,3.793112183E-1,2.124082947E-1,9.823322296E0,9.832937263E0
9.720553583E0,3.677851868E-1,2.010319519E-1,9.791288910E0,9.800256033E0
9.730585042E0,3.941304016E-1,2.089654541E-1,9.879754944E0,9.889821186E0
9.740616042E0,4.367916870E-1,2.070195007E-1,1.000818787E1,1.001985371E1
9.750647042E0,4.864883423E-1,2.201921082E-1,1.005129822E1,1.006547323E1
9.760678042E0,5.007087708E-1,2.227368164E-1,9.895771637E0,9.910934227E0
9.770709042E0,4.317022705E-1,2.249821472E-1,9.756561127E0,9.768698421E0
9.780740042E0,3.379971313E-1,2.016307068E-1,9.726623383E0,9.734582653E0
9.790772042E0,3.071612549E-1,1.971400452E-1,9.785900116E0,9.792704086E0
9.800803042E0,3.403921509E-1,1.963916016E-1,9.873168640E0,9.880986564E0
9.810834042E0,4.140390015E-1,1.981878662E-1,9.867330780E0,9.878001997E0
9.820865042E0,4.637356567E-1,2.279759216E-1,9.825118561E0,9.838698009E0
9.830896042E0,4.751119995E-1,2.462379456E-1,9.771679688E0,9.786321498E0
9.840927042E0,4.656816101E-1,2.706372070E-1,9.778415680E0,9.793238334E0
9.850958042E0,3.909869385E-1,2.992277527E-1,9.833650818E0,9.845968538E0
9.860989042E0,3.562591553E-1,2.887495422E-1,9.880952454E0,9.891588258E0
9.871020042E0,3.492237854E-1,2.902464294E-1,9.910890198E0,9.921287454E0
9.881051042E0,3.535647583E-1,2.902464294E-1,9.910590820E0,9.921142144E0
9.891082042E0,3.854484558E-1,3.061134338E-1,9.887688446E0,9.899932260E0
9.901113042E0,4.177812195E-1,3.052153015E-1,9.896071014E0,9.909587229E0
9.911144042E0,4.379891968E-1,2.859054565E-1,9.896220703E0,9.910033334E0
9.921175042E0,4.173321533E-1,2.399510193E-1,9.896969147E0,9.908669987E0
9.931206042E0,4.065545654E-1,1.908531189E-1,9.876761169E0,9.886967317E0
9.941237042E0,3.899391174E-1,1.474433899E-1,9.855954437E0,9.864767100E0
9.951268042E0,3.748205566E-1,1.564247131E-1,9.813293152E0,9.821694438E0
9.961299042E0,3.845503235E-1,1.456471252E-1,9.804012451E0,9.812632276E0
9.971330042E0,4.141886902E-1,1.556762695E-1,9.797426147E0,9.807412834E0
9.981361042E0,4.221221924E-1,1.802252197E-1,9.823921051E0,9.834637415E0
9.991392042E0,4.508624268E-1,1.844165039E-1,9.838740234E0,9.850791632E0
1.000142404E1,4.498146057E-1,1.908531189E-1,9.860894165E0,9.872993053E0
1.001145504E1,4.397854614E-1,2.180964661E-1,9.879904633E0,9.892092441E0
1.002148604E1,4.141886902E-1,2.463876343E-1,9.891131287E0,9.902865104E0
1.003151704E1,3.941304016E-1,2.634521484E-1,9.844578094E0,9.855986184E0
1.004154804E1,3.623963928E-1,3.023712158E-1,9.798024902E0,9.809385887E0
1.005157904E1,3.308120728E-1,3.327580261E-1,9.813143463E0,9.824354898E0
1.006161004E1,3.215313721E-1,3.385958862E-1,9.818232880E0,9.829329910E0
1.007164104E1,3.417393494E-1,3.116519165E-1,9.830058289E0,9.840932814E0
1.008167204E1,3.980223083E-1,2.637515259E-1,9.878407745E0,9.889940658E0
1.009170304E1,4.549040222E-1,2.360591125E-1,9.898915100E0,9.912173411E0
1.010173404E1,4.926255798E-1,2.067201233E-1,9.901010742E0,9.915413601E0
1.011176504E1,5.108876038E-1,1.782792664E-1,9.891280975E0,9.906070309E0
1.012179604E1,4.830455017E-1,1.791773987E-1,9.866432648E0,9.879875034E0
1.013182704E1,4.337979126E-1,1.727407837E-1,9.850865021E0,9.861924846E0
1.014185804E1,4.176315308E-1,1.908531189E-1,9.853110352E0,9.863803760E0
1.015188904E1,4.177812195E-1,2.061213684E-1,9.839488678E0,9.850510881E0
1.016192004E1,4.258644104E-1,2.180964661E-1,9.857750702E0,9.869355372E0
1.017195104E1,4.572990417E-1,2.519261169E-1,9.870174866E0,9.883973951E0
1.018198204E1,4.517605591E-1,2.561174011E-1,9.869127045E0,9.882780598E0
1.019201304E1,4.411326599E-1,2.562670898E-1,9.873767395E0,9.886938526E0
1.020204404E1,4.258644104E-1,2.472857666E-1,9.860295410E0,9.872585088E0
1.021207504E1,4.111949158E-1,2.532733154E-1,9.840686188E0,9.852529283E0
1.022210704E1,3.950285339E-1,2.344125366E-1,9.812095642E0,9.822841629E0
1.023213804E1,3.703298950E-1,2.303709412E-1,9.795929260E0,9.805633334E0
1.024216904E1,3.841012573E-1,2.110610962E-1,9.803862762E0,9.813654041E0
1.025220004E1,4.025129700E-1,1.923500061E-1,9.813891907E0,9.824026139E0
1.026223104E1,4.200265503E-1,1.954934692E-1,9.842482452E0,9.853380173E0
1.027226204E1,4.366419983E-1,1.884580994E-1,9.862391052E0,9.873850817E0
1.028229304E1,4.409829712E-1,1.788780212E-1,9.843829651E0,9.855325744E0
1.029232404E1,4.393363953E-1,1.781295776E-1,9.851763153E0,9.863162973E0
1.030235504E1,4.291575623E-1,1.914518738E-1,9.857151947E0,9.868347103E0
1.031238604E1,4.049079895E-1,2.053729248E-1,9.850266266E0,9.860723808E0
1.032241704E1,3.911366272E-1,2.055226135E-1,9.845326538E0,9.855236276E0
1.033244804E1,3.769161987E-1,2.142045593E-1,9.840985565E0,9.850530255E0
1.034247904E1,3.585044861E-1,2.263293457E-1,9.848470001E0,9.857591582E0
1.035251004E1,3.752696228E-1,2.341131592E-1,9.881401520E0,9.891295782E0
1.036254104E1,3.861968994E-1,2.441423035E-1,9.899064789E0,9.909603282E0
1.037257204E1,3.984713745E-1,2.677931213E-1,9.877509613E0,9.889170276E0
1.038260304E1,4.053570557E-1,2.814147949E-1,9.842931519E0,9.855293477E0
1.039263404E1,3.905378723E-1,2.692900085E-1,9.840087433E0,9.851515499E0
1.040266504E1,3.864962769E-1,2.523751831E-1,9.827513580E0,9.838348224E0
1.041269604E1,3.977229309E-1,2.490820312E-1,9.857151947E0,9.868316467E0
1.042272804E1,4.040098572E-1,2.209405518E-1,9.870025177E0,9.880760886E0
1.043275904E1,4.013154602E-1,1.968406677E-1,9.865384827E0,9.875505968E0
1.044279004E1,4.090992737E-1,1.902543640E-1,9.825417938E0,9.835771276E0
1.045282104E1,4.255650330E-1,1.799258423E-1,9.789642334E0,9.800539574E0
1.046285204E1,4.324507141E-1,1.573228455E-1,9.861792297E0,9.872523052E0
1.047288304E1,4.691244507E-1,1.537303162E-1,9.993668060E0,1.000585389E1
1.048291404E1,5.288502502E-1,1.661544800E-1,1.002495300E1,1.004026756E1
1.049294504E1,5.301974487E-1,1.772314453E-1,9.859846344E0,9.875681761E0
1.050297604E1,4.592449951E-1,1.766326904E-1,9.777966614E0,9.790338920E0
1.051300704E1,3.752696228E-1,1.866618347E-1,9.742939453E0,9.751950529E0
1.052303804E1,3.224295044E-1,1.992356873E-1,9.782307587E0,9.789647459E0
1.053306904E1,3.309617615E-1,1.874102783E-1,9.846823425E0,9.854166117E0
1.054310004E1,3.814068604E-1,2.028282166E-1,9.844727783E0,9.854200911E0
1.055313104E1,4.517605591E-1,2.210902405E-1,9.799222412E0,9.812121502E0
1.056316204E1,4.682263184E-1,2.601589966E-1,9.767039337E0,9.781716414E0
1.057319304E1,4.394860840E-1,2.948867798E-1,9.783505096E0,9.797809868E0
1.058322404E1,4.164340210E-1,3.029699707E-1,9.845775604E0,9.859234521E0
1.059325504E1,3.725752258E-1,2.971321106E-1,9.897268524E0,9.908734734E0
1.060328604E1,3.716770935E-1,2.866539001E-1,9.928403778E0,9.939492739E0
1.061331704E1,3.855981445E-1,2.679428101E-1,9.930798798E0,9.941893383E0
1.062334804E1,4.170327759E-1,2.731819153E-1,9.917775879E0,9.930298237E0
1.063338004E1,4.391867065E-1,2.541714478E-1,9.910740509E0,9.923722362E0
1.064341104E1,4.315525818E-1,2.237846375E-1,9.902507629E0,9.914432639E0
1.065344204E1,4.302053833E-1,1.919009399E-1,9.881551208E0,9.892772965E0
1.066347304E1,4.068539429E-1,1.624122620E-1,9.852511597E0,9.862245821E0
1.067350404E1,3.993695068E-1,1.475930786E-1,9.818232880E0,9.827460333E0
1.068353504E1,3.927832031E-1,1.432521057E-1,9.810748444E0,9.819652989E0
1.069356604E1,4.011657715E-1,1.389111328E-1,9.819879456E0,9.829051979E0
1.070359704E1,4.200265503E-1,1.499880981E-1,9.815837860E0,9.825965175E0
1.071362804E1,4.427792358E-1,1.713935852E-1,9.830956421E0,9.842415017E0
1.072365904E1,4.644841003E-1,1.773811340E-1,9.839788055E0,9.852341779E0
1.073369004E1,4.532574463E-1,2.109114075E-1,9.844727783E0,9.857413000E0
1.074372104E1,4.400848389E-1,2.471360779E-1,9.856852570E0,9.869766638E0
1.075375204E1,4.219725037E-1,2.715353394E-1,9.846524048E0,9.859301601E0
1.076378304E1,3.845503235E-1,2.962339783E-1,9.806557159E0,9.818563889E0
1.077381404E1,3.460803223E-1,3.288661194E-1,9.792935486E0,9.804565770E0
1.078384504E1,3.213816833E-1,3.370989990E-1,9.845326538E0,9.856336873E0
1.079387604E1,3.260220337E-1,3.061134338E-1,9.803264008E0,9.813459176E0
1.080390704E1,3.546125793E-1,2.796185303E-1,9.823322296E0,9.833697043E0
1.081393804E1,3.990701294E-1,2.427951050E-1,9.889035645E0,9.900062243E0
1.082396904E1,4.568499756E-1,2.098635864E-1,9.902058563E0,9.914813080E0
1.083400104E1,5.011578369E-1,2.026785278E-1,9.898466034E0,9.913216813E0
1.084403204E1,4.960684204E-1,1.893562317E-1,9.898466034E0,9.912697387E0
1.085406304E1,4.692741394E-1,1.649569702E-1,9.897717590E0,9.910209005E0
1.086409404E1,4.487667847E-1,1.577719116E-1,9.881251831E0,9.892695353E0
1.087412504E1,4.049079895E-1,1.808239746E-1,9.868079224E0,9.878038032E0
1.088415604E1,3.781137085E-1,1.962419128E-1,9.851314087E0,9.860520783E0
1.089418704E1,4.026626587E-1,2.212399292E-1,9.849966888E0,9.860676043E0
1.090421804E1,4.231700134E-1,2.466870117E-1,9.842632141E0,9.854812774E0
1.091424904E1,4.375401306E-1,2.517764282E-1,9.855804749E0,9.868724334E0
1.092428004E1,4.189787292E-1,2.606080627E-1,9.852361908E0,9.864709570E0
1.093431104E1,4.092489624E-1,2.511776733E-1,9.848470001E0,9.860169182E0
1.094434204E1,4.083508301E-1,2.528242493E-1,9.843380585E0,9.855090656E0
1.095437304E1,3.938310242E-1,2.436932373E-1,9.823322296E0,9.834233585E0
1.096440404E1,4.016148376E-1,2.302212524E-1,9.812993774E0,9.823906714E0
1.097443504E1,4.161346436E-1,2.257305908E-1,9.816436615E0,9.827845652E0
1.098446604E1,4.162843323E-1,2.158511353E-1,9.821076965E0,9.832265106E0
1.099449704E1,4.079017639E-1,2.158511353E-1,9.821376343E0,9.832212814E0
1.100452804E1,4.285588074E-1,2.095642090E-1,9.836045837E0,9.847607706E0
1.101455904E1,4.174818420E-1,2.028282166E-1,9.846224670E0,9.857158345E0
1.102459004E1,4.119433594E-1,2.073188782E-1,9.871821442E0,9.882587567E0
1.103462204E1,4.153862000E-1,2.092648315E-1,9.888736267E0,9.899668804E0
1.104465304E1,4.200265503E-1,2.224374390E-1,9.893975372E0,9.905384868E0
1.105468404E1,3.914360046E-1,2.345622253E-1,9.875413971E0,9.885951784E0
1.106471504E1,3.733236694E-1,2.415975952E-1,9.841883698E0,9.851924415E0
1.107474604E1,3.354524231E-1,2.396516418E-1,9.850715332E0,9.859338405E0
1.108477704E1,3.574566650E-1,2.427951050E-1,9.876162415E0,9.885611199E0
1.109480804E1,3.727249146E-1,2.502795410E-1,9.882449341E0,9.892642149E0
1.110483904E1,4.035607910E-1,2.615061951E-1,9.863139496E0,9.874855316E0
1.111487004E1,4.219725037E-1,2.704875183E-1,9.812544708E0,9.825337549E0
1.112490104E1,4.231700134E-1,2.618055725E-1,9.776769104E0,9.789424351E0
1.113493204E1,3.863465881E-1,2.625540161E-1,9.781409454E0,9.792556827E0
1.114496304E1,3.829037476E-1,2.378553772E-1,9.855056305E0,9.865359863E0
1.115499404E1,4.034111023E-1,2.125579834E-1,9.867330780E0,9.877861010E0
1.116502504E1,4.159849548E-1,2.089654541E-1,9.837991791E0,9.848999569E0
1.117505604E1,4.158352661E-1,2.040257263E-1,9.791438599E0,9.802388245E0
1.118508704E1,4.198768616E-1,1.845661926E-1,9.855804749E0,9.866470924E0
1.119511804E1,4.406835938E-1,1.932481384E-1,9.969119110E0,9.980725560E0
1.120514904E1,4.781057739E-1,2.154020691E-1,1.008722351E1,1.010084459E1
1.121518004E1,5.137316895E-1,2.224374390E-1,9.955647125E0,9.971374446E0
1.122521104E1,4.457730103E-1,2.188449097E-1,9.767488403E0,9.780104109E0
1.123524304E1,3.529660034E-1,2.062710571E-1,9.693392487E0,9.702009619E0
1.124527404E1,3.236270142E-1,2.149530029E-1,9.733958130E0,9.741708275E0
1.125530504E1,3.396437073E-1,2.097138977E-1,9.860295410E0,9.868371869E0
1.126533604E1,4.049079895E-1,1.983375549E-1,9.912985840E0,9.923234177E0
1.127536704E1,4.644841003E-1,2.192939758E-1,9.866732025E0,9.880092924E0
1.128539804E1,4.855902100E-1,2.463876343E-1,9.805958405E0,9.821065367E0
1.129542904E1,4.727169800E-1,2.639012146E-1,9.781259766E0,9.796231306E0
1.130546004E1,4.460723877E-1,2.883004761E-1,9.827513580E0,9.841855562E0
1.131549104E1,4.173321533E-1,3.017724609E-1,9.885143738E0,9.898550372E0
1.132552204E1,3.721261597E-1,2.900967407E-1,9.908644867E0,9.919872837E0
1.133555304E1,3.613485718E-1,3.017724609E-1,9.895921326E0,9.907113520E0
1.134558404E1,3.842509460E-1,2.954855347E-1,9.889634399E0,9.901506403E0
1.135561504E1,4.137396240E-1,2.927911377E-1,9.881850586E0,9.894840986E0
1.136564604E1,4.294569397E-1,2.854563904E-1,9.867929535E0,9.881394230E0
1.137567704E1,4.231700134E-1,2.507286072E-1,9.888586578E0,9.900812200E0
1.138570804E1,4.034111023E-1,2.002835083E-1,9.907597046E0,9.917829058E0
1.139573904E1,3.875440979E-1,1.733395386E-1,9.875863037E0,9.884983953E0
1.140577004E1,3.826043701E-1,1.538800049E-1,9.845176849E0,9.853810043E0
1.141580104E1,3.945794678E-1,1.535806274E-1,9.823621674E0,9.832742382E0
1.142583204E1,4.120930481E-1,1.724414062E-1,9.790690155E0,9.800876003E0
1.143586304E1,4.294569397E-1,1.892065430E-1,9.804611206E0,9.815835842E0
1.144589504E1,4.472698975E-1,1.933978271E-1,9.831704865E0,9.843773343E0
1.145592604E1,4.507127380E-1,2.148033142E-1,9.840536499E0,9.853194458E0
1.146595704E1,4.323010254E-1,2.311193848E-1,9.849068756E0,9.861260351E0
1.147598804E1,4.125421143E-1,2.489323425E-1,9.865833893E0,9.877592658E0
1.148601904E1,3.893403625E-1,2.784210205E-1,9.884844360E0,9.896426234E0
1.149605004E1,3.680845642E-1,3.046165466E-1,9.844129028E0,9.855716809E0
1.150608104E1,3.462300110E-1,3.309617615E-1,9.727671204E0,9.739455732E0
1.151611204E1,3.146456909E-1,3.370989990E-1,9.752070465E0,9.762966557E0
1.152614304E1,3.314108276E-1,3.306623840E-1,9.813891907E0,9.825051914E0
1.153617404E1,3.993695068E-1,3.002755737E-1,9.883497162E0,9.896119319E0
1.154620504E1,4.532574463E-1,2.549198914E-1,9.924362183E0,9.937977218E0
1.155623604E1,5.128335571E-1,2.203417969E-1,9.913135529E0,9.928837030E0
1.156626704E1,5.046006775E-1,1.966909790E-1,9.856403503E0,9.871271408E0
1.157629804E1,4.864883423E-1,1.841171265E-1,9.844129028E0,9.857862159E0
1.158632904E1,4.580474854E-1,1.748364258E-1,9.867480469E0,9.879653135E0
1.159636004E1,4.361929321E-1,1.794767761E-1,9.874216461E0,9.885475553E0
1.160639104E1,4.155358887E-1,1.939965820E-1,9.879605255E0,9.890242906E0
1.161642204E1,4.052073669E-1,2.177970886E-1,9.878557434E0,9.889263145E0
1.162645304E1,4.035607910E-1,2.556683350E-1,9.860594788E0,9.872160715E0
1.163648404E1,4.182302856E-1,2.637515259E-1,9.855355682E0,9.867751368E0
1.164651604E1,4.203259277E-1,2.709365845E-1,9.854158173E0,9.866839099E0
1.165654704E1,4.258644104E-1,2.713856506E-1,9.867480469E0,9.880393791E0
1.166657804E1,4.129911804E-1,2.415975952E-1,9.850865021E0,9.862478024E0
1.167660904E1,4.010160828E-1,2.451901245E-1,9.844727783E0,9.855942229E0
1.168664004E1,3.930825806E-1,2.269281006E-1,9.833501129E0,9.843970476E0
1.169667104E1,4.047583008E-1,2.493814087E-1,9.839488678E0,9.850967354E0
1.170670204E1,4.146377563E-1,2.405497742E-1,9.826465759E0,9.838151146E0
1.171673304E1,4.153862000E-1,2.366578674E-1,9.822573853E0,9.834201021E0
1.172676404E1,4.050576782E-1,2.269281006E-1,9.807754669E0,9.818738195E0
1.173679542E1,4.031117249E-1,2.089654541E-1,9.826316071E0,9.836800961E0
1.174682642E1,4.102967834E-1,2.107617188E-1,9.854457550E0,9.865246959E0
1.175685742E1,4.207749939E-1,2.073188782E-1,9.869725800E0,9.880866362E0
1.176688842E1,4.125421143E-1,2.227368164E-1,9.884544983E0,9.895657240E0
1.177691942E1,4.189787292E-1,2.405497742E-1,9.884095917E0,9.895896092E0
1.178695042E1,4.014651489E-1,2.395019531E-1,9.866432648E0,9.877501134E0
1.179698142E1,3.912863159E-1,2.486329651E-1,9.840386810E0,9.851301229E0
1.180701242E1,3.870950317E-1,2.659968567E-1,9.825118561E0,9.836338324E0
1.181704342E1,3.752696228E-1,2.511776733E-1,9.847721558E0,9.858069658E0
1.182707442E1,3.791615295E-1,2.505789185E-1,9.866881714E0,9.877343166E0
1.183710642E1,3.953279114E-1,2.384541321E-1,9.839488678E0,9.850313801E0
1.184713742E1,3.984713745E-1,2.255809021E-1,9.839788055E0,9.850436293E0
1.185716842E1,3.956272888E-1,2.320175171E-1,9.847871246E0,9.858545591E0
1.186719942E1,3.957769775E-1,2.341131592E-1,9.883946228E0,9.894637003E0
1.187723042E1,4.239184570E-1,2.405497742E-1,9.899364166E0,9.911356211E0
1.188726142E1,4.369413757E-1,2.466870117E-1,9.883197784E0,9.895926975E0
1.189729242E1,4.421804810E-1,2.510279846E-1,9.808503113E0,9.821673581E0
1.190732342E1,4.216731262E-1,2.457888794E-1,9.768236847E0,9.780422869E0
1.191735442E1,3.887416077E-1,2.469863892E-1,9.776170349E0,9.787013283E0
1.192738542E1,3.803590393E-1,2.297721863E-1,9.822124786E0,9.832171865E0
1.193741642E1,3.923341370E-1,2.209405518E-1,9.873917084E0,9.884178235E0
1.194744742E1,4.177812195E-1,2.186952209E-1,9.865384827E0,9.876648547E0
1.195747842E1,4.266128540E-1,2.204914856E-1,9.783804474E0,9.795582933E0
1.196750942E1,4.309538269E-1,2.234852600E-1,9.832303619E0,9.844280640E0
1.197754042E1,4.302053833E-1,2.263293457E-1,9.941726074E0,9.953603316E0
1.198757142E1,4.538562012E-1,2.293231201E-1,1.007524841E1,1.008807242E1
1.199760242E1,5.028044128E-1,2.351609802E-1,1.000369720E1,1.001908532E1
1.200763342E1,4.564009094E-1,2.287243652E-1,9.784552917E0,9.797861625E0
1.201766442E1,3.495231628E-1,2.192939758E-1,9.662406921E0,9.671213151E0
1.202769542E1,3.053649902E-1,2.246827698E-1,9.701775055E0,9.709179643E0
1.203772742E1,3.320095825E-1,2.263293457E-1,9.847272491E0,9.855467054E0
1.204775842E1,3.788621521E-1,2.164498901E-1,9.914333038E0,9.923930002E0
1.205778942E1,4.427792358E-1,2.094145203E-1,9.903705139E0,9.915809769E0
1.206782042E1,4.857398987E-1,2.116598511E-1,9.811945953E0,9.826241730E0
1.207785142E1,4.837939453E-1,2.299218750E-1,9.780810699E0,9.795467247E0
1.208788242E1,4.556524658E-1,2.559677124E-1,9.806407471E0,9.820324135E0
1.209791342E1,4.248165894E-1,2.625540161E-1,9.862840118E0,9.875475631E0
1.210794442E1,4.005670166E-1,2.600093079E-1,9.913584595E0,9.925080266E0
1.211797542E1,3.870950317E-1,2.811154175E-1,9.915081482E0,9.926616203E0
1.212800642E1,4.028123474E-1,3.119512939E-1,9.888586578E0,9.901702678E0
1.213803742E1,4.168830872E-1,3.267704773E-1,9.858948212E0,9.873167187E0
1.214806842E1,4.231700134E-1,3.038681030E-1,9.863588562E0,9.877337091E0
1.215809942E1,4.272116089E-1,2.797682190E-1,9.879754944E0,9.892943837E0
1.216813042E1,3.939807129E-1,2.369572449E-1,9.884994049E0,9.895679708E0
1.217816142E1,3.647914124E-1,1.932481384E-1,9.873468018E0,9.882094328E0
1.218819242E1,3.629951477E-1,1.580712891E-1,9.841284943E0,9.849245724E0
1.219822342E1,3.784130859E-1,1.731898499E-1,9.830956421E0,9.839760939E0
1.220825442E1,4.065545654E-1,1.663041687E-1,9.820777588E0,9.830595919E0
1.221828642E1,4.423301697E-1,1.637594604E-1,9.847571869E0,9.858861235E0
1.222831742E1,4.569996643E-1,1.800755310E-1,9.855355682E0,9.867588941E0
1.223834842E1,4.640350342E-1,1.959425354E-1,9.858648834E0,9.871508437E0
1.224837942E1,4.683760071E-1,2.182461548E-1,9.861642609E0,9.875171007E0
1.225841042E1,4.457730103E-1,2.525248718E-1,9.840237122E0,9.853565294E0
1.226844142E1,4.105961609E-1,2.812651062E-1,9.857301636E0,9.869857892E0
1.227847242E1,3.941304016E-1,2.862048340E-1,9.849368134E0,9.861404799E0
1.228850342E1,3.650907898E-1,2.945874023E-1,9.770332489E0,9.781588315E0
1.229853442E1,3.336561584E-1,3.115022278E-1,9.737999725E0,9.748692154E0
1.230856542E1,3.153941345E-1,3.080593872E-1,9.821526031E0,9.831416359E0
1.231859642E1,3.794609070E-1,2.917433167E-1,9.892628174E0,9.904200974E0
1.232862742E1,4.429289246E-1,2.562670898E-1,9.926457825E0,9.939639018E0
1.233865842E1,4.831951904E-1,2.164498901E-1,9.914183350E0,9.928311016E0
1.234868942E1,4.980143738E-1,2.046244812E-1,9.875863037E0,9.890528814E0
1.235872042E1,4.748126221E-1,1.815724182E-1,9.848320312E0,9.861431364E0
1.236875142E1,4.510121155E-1,1.642085266E-1,9.839638367E0,9.851337958E0
1.237878242E1,4.225712585E-1,1.692979431E-1,9.851613464E0,9.862125334E0
1.238881342E1,4.071533203E-1,1.683998108E-1,9.848470001E0,9.858321038E0
1.239884442E1,4.077520752E-1,2.035766602E-1,9.844877472E0,9.855420724E0
1.240887642E1,4.152365112E-1,2.170486450E-1,9.857301636E0,9.868430828E0
1.241890742E1,4.243675232E-1,2.716850281E-1,9.865684204E0,9.878543686E0
1.242893842E1,4.200265503E-1,2.734812927E-1,9.877210236E0,9.889918926E0
1.243896942E1,4.179309082E-1,2.528242493E-1,9.895771637E0,9.907819267E0
1.244900042E1,4.049079895E-1,2.405497742E-1,9.864037628E0,9.875274832E0
1.245903142E1,3.945794678E-1,2.116598511E-1,9.867181091E0,9.877335447E0
1.246906242E1,3.767665100E-1,2.062710571E-1,9.838740234E0,9.848112009E0
1.247909342E1,3.858975220E-1,2.119592285E-1,9.837243347E0,9.847090955E0
1.248912442E1,3.891906738E-1,2.236349487E-1,9.841135254E0,9.851366659E0
1.249915542E1,3.957769775E-1,2.329156494E-1,9.829459534E0,9.840181088E0
1.250918642E1,3.953279114E-1,2.197430420E-1,9.827363892E0,9.837766628E0
1.251921742E1,4.079017639E-1,2.188449097E-1,9.816586304E0,9.827494269E0
1.252924842E1,4.102967834E-1,1.983375549E-1,9.842332764E0,9.852877522E0
1.253927942E1,4.022135925E-1,1.989363098E-1,9.851314087E0,9.861528313E0
1.254931042E1,4.147874451E-1,2.074685669E-1,9.880503387E0,9.891382058E0
1.255934142E1,4.034111023E-1,2.131567383E-1,9.863887939E0,9.874434748E0
1.256937242E1,4.149371338E-1,2.264790344E-1,9.861792297E0,9.873115663E0
1.257940342E1,4.164340210E-1,2.404000854E-1,9.846673737E0,9.858407233E0
1.258943442E1,4.135899353E-1,2.333647156E-1,9.836794281E0,9.848250477E0
1.259946642E1,4.022135925E-1,2.393522644E-1,9.851314087E0,9.862426401E0
1.260949742E1,3.920347595E-1,2.338137817E-1,9.849368134E0,9.859939795E0
1.261952842E1,3.975732422E-1,2.216889954E-1,9.866282959E0,9.876778317E0
1.262955942E1,3.912863159E-1,2.252815247E-1,9.868378601E0,9.878701988E0
1.263959042E1,3.887416077E-1,2.338137817E-1,9.863738251E0,9.874164329E0
1.264962142E1,3.983216858E-1,2.074685669E-1,9.846524048E0,9.856761091E0
1.265965242E1,3.930825806E-1,2.161505127E-1,9.834548950E0,9.844774655E0
1.266968342E1,4.077520752E-1,2.026785278E-1,9.844278717E0,9.854804097E0
1.267971442E1,4.198768616E-1,1.905537415E-1,9.853858795E0,9.864640919E0
1.268974542E1,4.555027771E-1,1.956431580E-1,9.861343231E0,9.873796096E0
1.269977642E1,4.692741394E-1,1.923500061E-1,9.867480469E0,9.880505430E0
1.270980742E1,4.822970581E-1,1.980381775E-1,9.881700897E0,9.895445528E0
1.271983842E1,4.709207153E-1,2.041754150E-1,9.879605255E0,9.892929491E0
1.272986942E1,4.647834778E-1,2.139051819E-1,9.891580353E0,9.904803935E0
1.273989967E1,4.378395081E-1,2.134561157E-1,9.861193542E0,9.873216549E0
1.274993067E1,3.947291565E-1,2.100132751E-1,9.843530273E0,9.853679766E0
1.275996167E1,3.710783386E-1,2.122586060E-1,9.863738251E0,9.872997778E0
1.276999267E1,3.800596619E-1,2.065704346E-1,9.864636383E0,9.874116045E0
1.278002367E1,4.046086121E-1,2.290237427E-1,9.879156189E0,9.890090344E0
1.279005467E1,4.384382629E-1,2.380050659E-1,9.867779846E0,9.880382261E0
1.280008667E1,4.429289246E-1,2.505789185E-1,9.811197510E0,9.824386617E0
1.281011767E1,4.441264343E-1,2.604583740E-1,9.780062256E0,9.793605290E0
1.282014867E1,4.414320374E-1,2.426454163E-1,9.794881439E0,9.807825521E0
1.283017967E1,4.194277954E-1,2.234852600E-1,9.852212219E0,9.863668230E0
1.284021067E1,4.201762390E-1,2.001338196E-1,9.902058563E0,9.912989731E0
1.285024167E1,4.538562012E-1,1.939965820E-1,9.890532532E0,9.902840698E0
1.286027267E1,4.493655396E-1,1.776805115E-1,9.836045837E0,9.847908279E0
1.287030367E1,4.471202087E-1,1.791773987E-1,9.875563660E0,9.887303910E0
1.288033467E1,4.617897034E-1,1.695973206E-1,9.961035919E0,9.973176503E0
1.289036567E1,4.854405212E-1,1.821711731E-1,1.007345215E1,1.008678725E1
1.290039667E1,5.239105225E-1,1.972897339E-1,9.974956970E0,9.990654234E0
1.291042767E1,4.686753845E-1,2.016307068E-1,9.761051788E0,9.774376889E0
1.292045867E1,3.823049927E-1,1.930984497E-1,9.659712524E0,9.669203182E0
1.293048967E1,3.191363525E-1,1.917512512E-1,9.722432098E0,9.729558184E0
1.294052067E1,3.501219177E-1,1.889071655E-1,9.860594788E0,9.868616967E0
1.295055167E1,4.222718811E-1,1.910028076E-1,9.917027435E0,9.927851166E0
1.296058267E1,4.969665527E-1,1.947450256E-1,9.876162415E0,9.890575586E0
1.297061367E1,5.249583435E-1,2.176473999E-1,9.814939728E0,9.831378007E0
1.298064567E1,5.013075256E-1,2.254312134E-1,9.779463501E0,9.794898409E0
1.299067667E1,4.761598206E-1,2.421963501E-1,9.798324280E0,9.812876537E0
1.300070767E1,4.435276794E-1,2.534230042E-1,9.870923309E0,9.884132081E0
1.301073867E1,4.111949158E-1,2.459385681E-1,9.897418213E0,9.909008746E0
1.302076967E1,4.119433594E-1,2.609074402E-1,9.898765411E0,9.910768219E0
1.303080067E1,4.131408691E-1,2.727328491E-1,9.868677979E0,9.881086662E0
1.304083167E1,4.352947998E-1,2.963836670E-1,9.849517822E0,9.863585868E0
1.305086267E1,4.483177185E-1,2.920426941E-1,9.878557434E0,9.893036677E0
1.306089367E1,4.296066284E-1,2.562670898E-1,9.900861053E0,9.913490015E0
1.307092467E1,4.080514526E-1,2.140548706E-1,9.906249847E0,9.916960800E0
1.308095567E1,3.873944092E-1,1.737886047E-1,9.898615723E0,9.907717706E0
1.309098667E1,3.885919189E-1,1.440005493E-1,9.874815216E0,9.883507241E0
1.310101767E1,3.938310242E-1,1.359173584E-1,9.840536499E0,9.849352009E0
1.311104867E1,4.306544495E-1,1.329235840E-1,9.813742218E0,9.824086128E0
1.312107967E1,4.614903259E-1,1.261875916E-1,9.818981323E0,9.830630237E0
1.313111067E1,4.924758911E-1,1.519340515E-1,9.833501129E0,9.846997558E0
1.314114167E1,5.150788879E-1,1.657054138E-1,9.847871246E0,9.862724402E0
1.315117267E1,5.186714172E-1,2.113604736E-1,9.861492920E0,9.877385074E0
1.316120367E1,4.938230896E-1,2.369572449E-1,9.858050079E0,9.873254851E0
1.317123567E1,4.501139832E-1,2.674937439E-1,9.873168640E0,9.887042758E0
1.318126667E1,4.165837097E-1,2.959346008E-1,9.861492920E0,9.874723383E0
1.319129767E1,3.805087280E-1,3.041674805E-1,9.782008209E0,9.794130352E0
1.320132867E1,3.583547974E-1,3.348536682E-1,9.747280426E0,9.759611716E0
1.321135967E1,3.396437073E-1,3.179388428E-1,9.794582062E0,9.805624953E0
1.322139067E1,3.950285339E-1,2.827619934E-1,9.856104126E0,9.868069235E0
1.323142167E1,4.522096252E-1,2.460882568E-1,9.913135529E0,9.926495302E0
1.324145267E1,5.074447632E-1,2.157014465E-1,9.931098175E0,9.946393229E0
1.325148367E1,5.391787720E-1,1.700463867E-1,9.903405762E0,9.919529989E0
1.326151467E1,5.255570984E-1,1.601669312E-1,9.884544983E0,9.899802686E0
1.327154567E1,4.975653076E-1,1.389111328E-1,9.882299652E0,9.895792740E0
1.328157667E1,4.694238281E-1,1.393601990E-1,9.863738251E0,9.875885392E0
1.329160767E1,4.402345276E-1,1.541793823E-1,9.872719574E0,9.883732570E0
1.330163867E1,4.251159668E-1,1.797761536E-1,9.861792297E0,9.872587825E0
1.331166967E1,4.507127380E-1,2.062710571E-1,9.847272491E0,9.859739613E0
1.332170067E1,4.391867065E-1,2.522254944E-1,9.833351440E0,9.846385287E0
1.333173167E1,4.543052673E-1,2.594105530E-1,9.843530273E0,9.857422348E0
1.334176267E1,4.505630493E-1,2.526745605E-1,9.876761169E0,9.890261002E0
1.335179467E1,4.525090027E-1,2.507286072E-1,9.883197784E0,9.896728130E0
1.336182567E1,4.364923096E-1,2.426454163E-1,9.877659302E0,9.890275811E0
1.337185667E1,4.308041382E-1,2.183958435E-1,9.863887939E0,9.875706265E0
1.338188767E1,4.293072510E-1,2.234852600E-1,9.844578094E0,9.856468345E0
1.339191867E1,4.323010254E-1,2.183958435E-1,9.836195526E0,9.848112680E0
1.340194967E1,4.439767456E-1,2.234852600E-1,9.821226654E0,9.833796520E0
1.341198067E1,4.550537109E-1,2.059716797E-1,9.818681946E0,9.831379016E0
1.342201167E1,4.611909485E-1,2.109114075E-1,9.820777588E0,9.833862575E0
1.343204267E1,4.580474854E-1,2.022294617E-1,9.830058289E0,9.842801949E0
1.344207367E1,4.540058899E-1,1.944456482E-1,9.849817200E0,9.862191913E0
1.345210467E1,4.487667847E-1,1.932481384E-1,9.857900391E0,9.870001853E0
1.346213567E1,4.547543335E-1,2.091151428E-1,9.867929535E0,9.880615565E0
1.347216667E1,4.569996643E-1,2.188449097E-1,9.861343231E0,9.874352238E0
1.348219767E1,4.480183411E-1,2.386038208E-1,9.869276733E0,9.882321360E0
1.349222867E1,4.412823486E-1,2.453398132E-1,9.868528290E0,9.881435743E0
1.350225967E1,4.601431274E-1,2.595602417E-1,9.859846344E0,9.873989728E0
1.351229067E1,4.677772522E-1,2.522254944E-1,9.866133270E0,9.880436173E0
1.352232167E1,4.626878357E-1,2.510279846E-1,9.857151947E0,9.871197475E0
1.353235267E1,4.457730103E-1,2.520758057E-1,9.843380585E0,9.856693012E0
1.354238467E1,4.555027771E-1,2.450404358E-1,9.850715332E0,9.864285080E0
1.355241567E1,4.486170959E-1,2.478845215E-1,9.847422180E0,9.860751880E0
1.356244667E1,4.532574463E-1,2.426454163E-1,9.838740234E0,9.852163646E0
1.357247767E1,4.571493530E-1,2.448907471E-1,9.843380585E0,9.857032938E0
1.358250867E1,4.646337891E-1,2.396516418E-1,9.846673737E0,9.860542639E0
1.359253967E1,4.733157349E-1,2.261796570E-1,9.871072998E0,9.885002132E0
1.360257067E1,4.864883423E-1,2.347119141E-1,9.859397278E0,9.874182258E0
1.361260167E1,4.948709106E-1,2.323168945E-1,9.863139496E0,9.878278649E0
1.362263267E1,5.020559692E-1,2.243833923E-1,9.850415955E0,9.865754030E0
1.363266367E1,5.207670593E-1,2.303709412E-1,9.855205994E0,9.871643950E0
1.364269467E1,5.047503662E-1,2.321672058E-1,9.858050079E0,9.873693631E0
1.365272567E1,4.975653076E-1,2.499801636E-1,9.826016693E0,9.841781616E0
1.366275667E1,4.724176025E-1,2.489323425E-1,9.836045837E0,9.850530108E0
1.367278767E1,4.577481079E-1,2.378553772E-1,9.858199768E0,9.871687352E0
1.368281867E1,4.628375244E-1,2.625540161E-1,9.880503387E0,9.894821897E0
1.369284967E1,4.725672913E-1,2.772235107E-1,9.884994049E0,9.900165659E0
1.370288067E1,4.737648010E-1,2.968327332E-1,9.869127045E0,9.884949741E0
1.371291167E1,4.873864746E-1,3.029699707E-1,9.844727783E0,9.861440133E0
1.372294367E1,4.936734009E-1,3.116519165E-1,9.813143463E0,9.830494645E0
1.373297483E1,4.884342957E-1,3.005749512E-1,9.820029144E0,9.836761955E0
1.374300583E1,4.912783813E-1,2.817141724E-1,9.828262024E0,9.844564578E0
1.375303683E1,4.763095093E-1,2.844085693E-1,9.855056305E0,9.870658223E0
1.376306783E1,4.842430115E-1,2.749781799E-1,9.849817200E0,9.865546268E0
1.377309883E1,4.866380310E-1,2.588117981E-1,9.826016693E0,9.841463518E0
1.378312983E1,4.842430115E-1,2.667453003E-1,9.817634125E0,9.833187894E0
1.379316083E1,4.969665527E-1,2.555186462E-1,9.861642609E0,9.877462249E0
1.380319183E1,5.417234802E-1,2.363584900E-1,9.970466309E0,9.987969167E0
1.381322283E1,5.769003296E-1,2.585124207E-1,1.004052063E1,1.006040244E1
1.382325383E1,6.111790466E-1,2.522254944E-1,9.878707123E0,9.900808651E0
1.383328483E1,5.528004456E-1,2.386038208E-1,9.781708832E0,9.800221823E0
1.384331583E1,4.876858521E-1,2.380050659E-1,9.759255524E0,9.774331296E0
1.385334683E1,4.510121155E-1,2.540217590E-1,9.790241089E0,9.803915522E0
1.386337783E1,4.665797424E-1,2.550695801E-1,9.847721558E0,9.862067584E0
1.387340883E1,4.843927002E-1,2.565664673E-1,9.857601013E0,9.872829401E0
1.388343983E1,5.381309509E-1,2.701881409E-1,9.812245331E0,9.830704196E0
1.389347083E1,5.607339478E-1,2.984793091E-1,9.761500854E0,9.782147586E0
1.390350283E1,5.520520020E-1,3.210823059E-1,9.754315796E0,9.775199840E0
1.391353383E1,5.279521179E-1,3.409909058E-1,9.793683929E0,9.813829688E0
1.392356483E1,5.260061646E-1,3.510200500E-1,9.854607239E0,9.874876272E0
1.393359583E1,5.077441406E-1,3.611988831E-1,9.898765411E0,9.918358000E0
1.394362683E1,5.186714172E-1,3.818559265E-1,9.906549225E0,9.927464507E0
1.395365783E1,5.366340637E-1,3.812571716E-1,9.889784088E0,9.911667996E0
1.396368883E1,5.372328186E-1,3.698808289E-1,9.907147980E0,9.928595672E0
1.397371983E1,5.511538696E-1,3.457809448E-1,9.910141754E0,9.931477465E0
1.398375083E1,5.468128967E-1,3.038681030E-1,9.898765411E0,9.918512834E0
1.399378183E1,5.475613403E-1,2.709365845E-1,9.866133270E0,9.885029882E0
1.400381283E1,5.348377991E-1,2.448907471E-1,9.818232880E0,9.835838542E0
1.401384383E1,5.249583435E-1,2.450404358E-1,9.779164124E0,9.796309358E0
1.402387483E1,5.144801331E-1,2.272274780E-1,9.769883423E0,9.786058667E0
1.403390583E1,5.403762817E-1,2.374063110E-1,9.771679688E0,9.789488863E0
1.404393683E1,5.761518860E-1,2.415975952E-1,9.805359650E0,9.825242911E0
1.405396783E1,5.921685791E-1,2.628533936E-1,9.835447083E0,9.856762899E0
1.406399883E1,6.051914978E-1,2.962339783E-1,9.829309845E0,9.852377548E0
1.407402983E1,5.921685791E-1,3.189866638E-1,9.814640350E0,9.837661375E0
1.408406083E1,5.644761658E-1,3.400927734E-1,9.828112335E0,9.850182156E0
1.409409283E1,5.541476440E-1,3.589535522E-1,9.842183075E0,9.864304078E0
1.410412383E1,5.170248413E-1,3.673361206E-1,9.784552917E0,9.805086757E0
1.411415483E1,4.830455017E-1,3.890409851E-1,9.792935486E0,9.812556816E0
1.412418583E1,4.700225830E-1,3.867956543E-1,9.826316071E0,9.845152087E0
1.413421683E1,4.833448792E-1,3.739224243E-1,9.823172607E0,9.842162381E0
1.414424783E1,5.119354248E-1,3.475772095E-1,9.870174866E0,9.889552046E0
1.415427883E1,5.641767883E-1,3.037184143E-1,9.909842377E0,9.930534540E0
1.416430983E1,6.062393188E-1,2.733316040E-1,9.904004517E0,9.926305543E0
1.417434083E1,6.345304871E-1,2.609074402E-1,9.893975372E0,9.917734131E0
1.418437183E1,6.295907593E-1,2.414479065E-1,9.875563660E0,9.898557431E0
1.419440283E1,6.227050781E-1,2.685415649E-1,9.850415955E0,9.873731345E0
1.420443383E1,5.842350769E-1,2.692900085E-1,9.844727783E0,9.865724143E0
1.421446483E1,5.608836365E-1,2.862048340E-1,9.810000000E0,9.830188384E0
1.422449583E1,5.547463989E-1,3.044668579E-1,9.819879456E0,9.840247769E0
1.423452683E1,5.547463989E-1,2.990780640E-1,9.813742218E0,9.833957880E0
1.424455783E1,5.658233643E-1,3.195854187E-1,9.848769379E0,9.870184861E0
1.425458883E1,5.625302124E-1,3.121009827E-1,9.865684204E0,9.886636034E0
1.426462083E1,5.502557373E-1,3.168910217E-1,9.857151947E0,9.877582994E0
1.427465183E1,5.444178772E-1,3.245251465E-1,9.846374359E0,9.866752020E0
1.428468283E1,5.405259705E-1,3.218307495E-1,9.829010468E0,9.849121287E0
1.429471383E1,5.366340637E-1,3.020718384E-1,9.805958405E0,9.825275759E0
1.430474483E1,5.533992004E-1,2.869532776E-1,9.807455292E0,9.827246418E0
1.431477583E1,5.734574890E-1,2.838098145E-1,9.811796265E0,9.832636851E0
1.432480683E1,5.858816528E-1,2.556683350E-1,9.841584320E0,9.862322522E0
1.433483783E1,5.917195129E-1,2.502795410E-1,9.832303619E0,9.853271857E0
1.434486883E1,5.780978394E-1,2.279759216E-1,9.826316071E0,9.845946255E0
1.435489983E1,5.704637146E-1,2.270777893E-1,9.817484436E0,9.836665788E0
1.436493083E1,5.519023132E-1,2.155517578E-1,9.824669495E0,9.842519464E0
1.437496183E1,5.251080322E-1,2.231858826E-1,9.819729767E0,9.836292141E0
1.438499283E1,5.093907166E-1,2.375559998E-1,9.805958405E0,9.822053349E0
1.439502383E1,4.933740234E-1,2.664459229E-1,9.812095642E0,9.828104204E0
1.440505483E1,5.017565918E-1,2.799179077E-1,9.799222412E0,9.816051833E0
1.441508583E1,5.078938293E-1,2.900967407E-1,9.796677704E0,9.814122798E0
1.442511683E1,5.252577209E-1,3.035687256E-1,9.820328522E0,9.839049848E0
1.443514783E1,5.363346863E-1,2.893482971E-1,9.842183075E0,9.861031640E0
1.444517983E1,5.312452698E-1,2.871029663E-1,9.846074982E0,9.864575115E0
1.445521083E1,5.248086548E-1,2.609074402E-1,9.882898407E0,9.900261499E0
1.446524183E1,5.086422729E-1,2.457888794E-1,9.884395294E0,9.900525212E0
1.447527283E1,4.915777588E-1,2.242337036E-1,9.881401520E0,9.896162157E0
1.448530383E1,4.959187317E-1,2.157014465E-1,9.868827667E0,9.883634050E0
1.449533483E1,5.065466309E-1,2.046244812E-1,9.868677979E0,9.883788024E0
1.450536583E1,5.227130127E-1,1.972897339E-1,9.884844360E0,9.900621201E0
1.451539683E1,5.346881104E-1,1.824705505E-1,9.897418213E0,9.913529854E0
1.452542783E1,5.340893555E-1,1.953437805E-1,9.883646851E0,9.899994227E0
1.453545883E1,5.444178772E-1,2.098635864E-1,9.886640625E0,9.903842507E0
1.454548983E1,5.468128967E-1,2.330653381E-1,9.875563660E0,9.893436278E0
1.455552083E1,5.571414185E-1,2.496807861E-1,9.852062531E0,9.870961613E0
1.456555183E1,5.619314575E-1,2.748284912E-1,9.830357666E0,9.850240073E0
1.457558283E1,5.504054260E-1,2.739303589E-1,9.836045837E0,9.855241331E0
1.458561383E1,5.155279541E-1,2.550695801E-1,9.845925293E0,9.862711313E0
1.459564483E1,5.143304443E-1,2.276765442E-1,9.865235138E0,9.881256840E0
1.460567583E1,5.069956970E-1,2.177970886E-1,9.882599030E0,9.897991907E0
1.461570683E1,4.791535950E-1,2.059716797E-1,9.856104126E0,9.869893669E0
1.462573883E1,4.799020386E-1,1.833686829E-1,9.799671478E0,9.813128508E0
1.463576983E1,4.772076416E-1,1.948947144E-1,9.779912567E0,9.793487678E0
1.464580083E1,4.936734009E-1,1.766326904E-1,9.817185059E0,9.831176685E0
1.465583183E1,5.394781494E-1,2.022294617E-1,9.963430939E0,9.980074624E0
1.466586283E1,5.918692017E-1,2.061213684E-1,1.001612137E1,1.003571036E1
1.467589383E1,6.072871399E-1,2.116598511E-1,9.882748718E0,9.903651841E0
1.468592483E1,5.352868652E-1,2.064207458E-1,9.803114319E0,9.819887571E0
1.469595583E1,4.658312988E-1,2.192939758E-1,9.782756653E0,9.796296054E0
1.470598683E1,4.246669006E-1,1.802252197E-1,9.796528015E0,9.807384170E0
1.471601783E1,4.264631653E-1,1.448986816E-1,9.822573853E0,9.832894973E0
1.472604883E1,4.641847229E-1,1.377136230E-1,9.794432373E0,9.806392711E0
1.473607958E1,4.839436340E-1,1.583706665E-1,9.729766846E0,9.743081934E0
1.474611058E1,4.846920776E-1,1.878593445E-1,9.713151398E0,9.727051332E0
1.475614158E1,5.019062805E-1,2.586621094E-1,9.765991516E0,9.782300665E0
1.476617258E1,5.044509888E-1,3.153941345E-1,9.825867004E0,9.843861369E0
1.477620358E1,5.068460083E-1,3.550616455E-1,9.884245605E0,9.903598984E0
1.478623458E1,5.230123901E-1,3.498225403E-1,9.945917358E0,9.965801015E0
1.479626558E1,5.641767883E-1,3.415896606E-1,9.960437164E0,9.982248617E0
1.480629758E1,5.599855042E-1,3.038681030E-1,9.972711639E0,9.993042431E0
1.481632858E1,5.441184998E-1,2.535726929E-1,9.967921600E0,9.985981428E0
1.482635958E1,5.319937134E-1,2.031275940E-1,9.945318604E0,9.961608317E0
1.483639058E1,4.960684204E-1,1.588197327E-1,9.919123077E0,9.932789649E0
1.484642158E1,4.752616882E-1,1.422042847E-1,9.858948212E0,9.871421153E0
1.485645258E1,4.679269409E-1,1.251397705E-1,9.796078949E0,9.808046613E0
1.486648358E1,4.821473694E-1,1.166075134E-1,9.763746185E0,9.776338935E0
1.487651458E1,5.108876038E-1,1.245410156E-1,9.774823151E0,9.788957260E0
1.488654558E1,5.477110291E-1,1.297801208E-1,9.795779572E0,9.811938018E0
1.489657658E1,5.662724304E-1,1.565744019E-1,9.845775604E0,9.863289373E0
1.490660758E1,5.674699402E-1,1.814227295E-1,9.878856812E0,9.896804951E0
1.491663858E1,5.495072937E-1,2.168989563E-1,9.888436890E0,9.906068218E0
1.492666958E1,5.072950745E-1,2.556683350E-1,9.872569885E0,9.888900380E0
1.493670058E1,4.772076416E-1,2.692900085E-1,9.858199768E0,9.873416172E0
1.494673158E1,4.393363953E-1,2.981799316E-1,9.829160156E0,9.843491104E0
1.495676258E1,4.185296631E-1,2.950364685E-1,9.809550934E0,9.822907061E0
1.496679358E1,4.040098572E-1,2.962339783E-1,9.845326538E0,9.858064373E0
1.497682458E1,4.237687683E-1,2.912942505E-1,9.860594788E0,9.873994221E0
1.498685658E1,4.822970581E-1,2.492317200E-1,9.857601013E0,9.872538915E0
1.499688758E1,5.210664368E-1,2.245330811E-1,9.868827667E0,9.885124423E0
1.500691858E1,5.706134033E-1,2.034269714E-1,9.898765411E0,9.917284853E0
1.501694958E1,6.060896301E-1,1.778302002E-1,9.917027435E0,9.937122389E0
1.502698058E1,5.857319641E-1,1.649569702E-1,9.915829926E0,9.934484176E0
1.503701158E1,5.532495117E-1,1.734892273E-1,9.883946228E0,9.900938166E0
1.504704258E1,5.331912231E-1,1.808239746E-1,9.861193542E0,9.877253073E0
1.505707358E1,5.099894714E-1,1.791773987E-1,9.836345215E0,9.851186781E0
1.506710458E1,5.095404053E-1,2.046244812E-1,9.834998016E0,9.850314136E0
1.507713558E1,5.179229736E-1,2.109114075E-1,9.833201752E0,9.849090543E0
1.508716658E1,5.275030518E-1,2.395019531E-1,9.868677979E0,9.885667691E0
1.509719758E1,5.465135193E-1,2.571652222E-1,9.881251831E0,9.899694375E0
1.510722858E1,5.426216125E-1,2.606080627E-1,9.859247589E0,9.877606886E0
1.511725958E1,5.379812622E-1,2.582130432E-1,9.856702881E0,9.874750098E0
1.512729058E1,5.149291992E-1,2.686912537E-1,9.814490662E0,9.831661814E0
1.513732158E1,4.957690430E-1,2.547702026E-1,9.771529999E0,9.787415048E0
1.514735358E1,4.863386536E-1,2.329156494E-1,9.778565369E0,9.793422060E0
1.515738458E1,5.017565918E-1,2.038760376E-1,9.806407471E0,9.821351872E0
1.516741558E1,5.264552307E-1,1.785786438E-1,9.834099884E0,9.849800301E0
1.517744658E1,5.412744141E-1,1.589694214E-1,9.861043854E0,9.877167365E0
1.518747758E1,5.412744141E-1,1.682501221E-1,9.887538757E0,9.903772452E0
1.519750858E1,5.334906006E-1,1.724414062E-1,9.883347473E0,9.899237624E0
1.520753958E1,5.355862427E-1,2.010319519E-1,9.869127045E0,9.885693455E0
1.521757058E1,5.272036743E-1,2.182461548E-1,9.850116577E0,9.866629196E0
1.522760158E1,5.098397827E-1,2.318678284E-1,9.831704865E0,9.847645396E0
1.523763258E1,5.047503662E-1,2.323168945E-1,9.840237122E0,9.855912473E0
1.524766358E1,4.858895874E-1,2.308200073E-1,9.841584320E0,9.856274575E0
1.525769458E1,4.824467468E-1,2.195933533E-1,9.853110352E0,9.867358294E0
1.526772558E1,4.873864746E-1,2.332150269E-1,9.842931519E0,9.857750033E0
1.527775658E1,5.028044128E-1,2.562670898E-1,9.863738251E0,9.879869300E0
1.528778758E1,5.090913391E-1,2.591111755E-1,9.862989807E0,9.879518234E0
1.529781858E1,5.197192383E-1,2.615061951E-1,9.848020935E0,9.865191834E0
1.530784958E1,5.206173706E-1,2.574645996E-1,9.831854553E0,9.848994589E0
1.531788158E1,5.035528564E-1,2.465373230E-1,9.843230896E0,9.859185595E0
1.532791258E1,5.105882263E-1,2.429447937E-1,9.854008484E0,9.870218119E0
1.533794358E1,5.068460083E-1,2.444416809E-1,9.868079224E0,9.884110085E0
1.534797458E1,5.306465149E-1,2.613565063E-1,9.846673737E0,9.864424799E0
1.535800558E1,5.493576050E-1,2.812651062E-1,9.809251556E0,9.828647920E0
1.536803658E1,5.507048035E-1,2.712359619E-1,9.747729492E0,9.767040236E0
1.537806758E1,5.544470215E-1,2.484832764E-1,9.717043304E0,9.736020030E0
1.538809858E1,5.486091614E-1,2.338137817E-1,9.735005951E0,9.753254932E0
1.539812958E1,5.381309509E-1,2.165995789E-1,9.810898132E0,9.828032482E0
1.540816058E1,5.789959717E-1,2.213896179E-1,9.912985840E0,9.932348059E0
1.541819158E1,6.167175293E-1,2.360591125E-1,9.926906891E0,9.948846407E0
1.542822258E1,6.018983459E-1,2.357597351E-1,9.892179108E0,9.913277549E0
1.543825358E1,5.724096680E-1,2.143542480E-1,9.859097900E0,9.878026725E0
1.544828458E1,5.574407959E-1,1.959425354E-1,9.859097900E0,9.876788199E0
1.545831558E1,5.894741821E-1,1.939965820E-1,9.977501678E0,9.996782194E0
1.546834658E1,6.201603699E-1,2.020797729E-1,9.959539032E0,9.980874353E0
1.547837758E1,6.092330933E-1,2.025288391E-1,9.797126770E0,9.818140142E0
1.548840858E1,5.501060486E-1,2.164498901E-1,9.762099609E0,9.779982413E0
1.549844058E1,5.029541016E-1,2.124082947E-1,9.773625641E0,9.788862972E0
1.550847158E1,5.054988098E-1,1.896556091E-1,9.806108093E0,9.820959945E0
1.551850258E1,5.236111450E-1,1.880090332E-1,9.827812958E0,9.843547306E0
1.552853358E1,5.592370605E-1,1.866618347E-1,9.845176849E0,9.862813794E0
1.553856458E1,5.884263611E-1,2.236349487E-1,9.816286926E0,9.836449928E0
1.554859558E1,6.099815369E-1,2.823129272E-1,9.830806732E0,9.853757612E0
1.555862658E1,6.282435608E-1,3.149450684E-1,9.847422180E0,9.872466964E0
1.556865758E1,6.304888916E-1,3.585044861E-1,9.855655060E0,9.882306328E0
1.557868858E1,6.078858948E-1,3.529660034E-1,9.882748718E0,9.907715806E0
1.558871958E1,5.742059326E-1,3.272195435E-1,9.862690430E0,9.884808931E0
1.559875058E1,5.551954651E-1,3.029699707E-1,9.880802765E0,9.901025002E0
1.560878158E1,5.376818848E-1,2.731819153E-1,9.904453583E0,9.922798544E0
1.561881258E1,5.224136353E-1,2.279759216E-1,9.922266541E0,9.938624770E0
1.562884358E1,5.013075256E-1,2.043251038E-1,9.917326813E0,9.932090872E0
1.563887458E1,5.031037903E-1,1.977388000E-1,9.902507629E0,9.917251202E0
1.564890558E1,5.095404053E-1,1.773811340E-1,9.861792297E0,9.876540022E0
1.565893758E1,5.504054260E-1,1.616638184E-1,9.814041595E0,9.830793140E0
1.566896858E1,5.909710693E-1,1.580712891E-1,9.785750427E0,9.804853123E0
1.567899958E1,6.295907593E-1,1.655557251E-1,9.793234863E0,9.814848053E0
1.568903058E1,6.677613831E-1,1.689985657E-1,9.813293152E0,9.837438095E0
1.569906158E1,6.755451965E-1,1.954934692E-1,9.825567627E0,9.850703437E0
1.570909258E1,6.441105652E-1,2.326162720E-1,9.835147705E0,9.858961362E0
1.571912358E1,6.113287354E-1,2.600093079E-1,9.840536499E0,9.862934971E0
1.572915458E1,5.691165161E-1,2.933898926E-1,9.833501129E0,9.854324720E0
1.573918621E1,5.333409119E-1,3.025209045E-1,9.852661285E0,9.871722536E0
1.574921721E1,5.095404053E-1,3.053649902E-1,9.813592529E0,9.831555194E0
1.575924821E1,5.161267090E-1,3.176394653E-1,9.835596771E0,9.854250121E0
1.576927921E1,5.369334412E-1,3.159928894E-1,9.855355682E0,9.875028337E0
1.577931021E1,5.652246094E-1,3.119512939E-1,9.847571869E0,9.868711374E0
1.578934121E1,6.171665955E-1,2.809657288E-1,9.841883698E0,9.865217233E0
1.579937221E1,6.489006042E-1,2.296224976E-1,9.889335022E0,9.913261101E0
1.580940321E1,6.577322388E-1,2.125579834E-1,9.902657318E0,9.926752468E0
1.581943421E1,6.491999817E-1,1.999841309E-1,9.909093933E0,9.932351023E0
1.582946621E1,6.268963623E-1,2.171983337E-1,9.890981598E0,9.913207913E0
1.583949721E1,5.938151550E-1,2.236349487E-1,9.854307861E0,9.874715816E0
1.584952821E1,5.599855042E-1,2.231858826E-1,9.838590546E0,9.857041119E0
1.585955921E1,5.779481506E-1,2.417472839E-1,9.833800507E0,9.853735242E0
1.586959021E1,5.884263611E-1,2.610571289E-1,9.843380585E0,9.864407622E0
1.587962121E1,5.801934814E-1,2.694396973E-1,9.864935760E0,9.885655253E0
1.588965221E1,5.842350769E-1,2.613565063E-1,9.879754944E0,9.900464413E0
1.589968321E1,5.975573730E-1,2.624043274E-1,9.855505371E0,9.877090511E0
1.590971421E1,5.774990845E-1,2.751278687E-1,9.828860779E0,9.849655057E0
1.591974521E1,5.411247253E-1,2.640509033E-1,9.807455292E0,9.825920728E0
1.592977621E1,5.343887329E-1,2.679428101E-1,9.786498871E0,9.804739916E0
1.593980721E1,5.548960876E-1,2.615061951E-1,9.800419922E0,9.819599065E0
1.594983821E1,5.652246094E-1,2.484832764E-1,9.798024902E0,9.817459691E0
1.595986921E1,5.852828979E-1,2.369572449E-1,9.829908600E0,9.850167912E0
1.596990021E1,6.012995911E-1,2.076182556E-1,9.850865021E0,9.871383297E0
1.597993121E1,6.107299805E-1,1.966909790E-1,9.866133270E0,9.886974469E0
1.598996221E1,5.983058167E-1,1.923500061E-1,9.864636383E0,9.884635519E0
1.599999421E1,6.005511475E-1,2.040257263E-1,9.864935760E0,9.885304534E0
1.601002521E1,5.861810303E-1,2.255809021E-1,9.853709106E0,9.873706401E0
1.602005621E1,5.929170227E-1,2.430944824E-1,9.836345215E0,9.857197001E0
1.603008721E1,5.764512634E-1,2.679428101E-1,9.811047821E0,9.831619844E0
1.604011821E1,5.764512634E-1,2.688409424E-1,9.812544708E0,9.833138114E0
1.605014921E1,5.736071777E-1,2.694396973E-1,9.847721558E0,9.868092157E0
1.606018021E1,5.851332092E-1,2.736309814E-1,9.855056305E0,9.876203196E0
1.607021121E1,5.947132874E-1,2.749781799E-1,9.859397278E0,9.881144244E0
1.608024221E1,5.737568665E-1,2.704875183E-1,9.833052063E0,9.853490413E0
1.609027321E1,5.590873718E-1,2.685415649E-1,9.844877472E0,9.864395861E0
1.610030421E1,5.477110291E-1,2.565664673E-1,9.863438873E0,9.881965398E0
1.611033521E1,5.641767883E-1,2.704875183E-1,9.850116577E0,9.869967352E0
1.612036621E1,5.915698242E-1,2.926414490E-1,9.851164398E0,9.873248395E0
1.613039721E1,5.974076843E-1,2.724334717E-1,9.835297394E0,9.857189800E0
1.614042821E1,6.212081909E-1,2.520758057E-1,9.809850311E0,9.832731307E0
1.615045921E1,6.099815369E-1,2.606080627E-1,9.800868988E0,9.823290027E0
1.616049021E1,6.087840271E-1,2.607577515E-1,9.829908600E0,9.852193445E0
1.617052221E1,6.179150391E-1,2.621049500E-1,9.869875488E0,9.892672043E0
1.618055321E1,6.306385803E-1,2.567161560E-1,9.883048096E0,9.906475047E0
1.619058421E1,6.370751953E-1,2.559677124E-1,9.860145721E0,9.884020332E0
1.620061521E1,6.155200195E-1,2.498304749E-1,9.831854553E0,9.854270349E0
1.621064621E1,6.078858948E-1,2.326162720E-1,9.809550934E0,9.831120237E0
1.622067721E1,6.021977234E-1,2.101629639E-1,9.860445099E0,9.881051974E0
1.623070821E1,6.253994751E-1,2.246827698E-1,9.954599304E0,9.976755693E0
1.624073921E1,6.514453125E-1,2.694396973E-1,9.916428680E0,9.941455453E0
1.625077021E1,6.563850403E-1,3.029699707E-1,9.779164124E0,9.805849432E0
1.626080121E1,5.899232483E-1,2.764750671E-1,9.791438599E0,9.813089102E0
1.627083221E1,5.418731689E-1,2.285746765E-1,9.808503113E0,9.826118574E0
1.628086321E1,5.372328186E-1,1.652563477E-1,9.835297394E0,9.851345268E0
1.629089421E1,5.463638306E-1,1.850152588E-1,9.869276733E0,9.886119933E0
1.630092521E1,5.882766724E-1,2.227368164E-1,9.836644592E0,9.856736679E0
1.631095621E1,6.316864014E-1,2.868035889E-1,9.813742218E0,9.838232582E0
1.632098721E1,6.680607605E-1,3.408412170E-1,9.795180817E0,9.823850831E0
1.633101821E1,6.734495544E-1,3.972738647E-1,9.816885681E0,9.847974680E0
1.634105021E1,6.914122009E-1,4.188290405E-1,9.821675720E0,9.854886227E0
1.635108121E1,6.683601379E-1,4.237687683E-1,9.849517822E0,9.881259362E0
1.636111221E1,6.764433289E-1,3.873944092E-1,9.883347473E0,9.914040916E0
1.637114321E1,6.375242615E-1,3.430865479E-1,9.908644867E0,9.935058564E0
1.638117421E1,6.116281128E-1,2.815644836E-1,9.911938019E0,9.934781467E0
1.639120521E1,5.767506409E-1,2.478845215E-1,9.914931793E0,9.934785378E0
1.640123621E1,5.631289673E-1,2.493814087E-1,9.885143738E0,9.904310781E0
1.641126721E1,5.737568665E-1,2.344125366E-1,9.863887939E0,9.883341108E0
1.642129821E1,5.980064392E-1,2.291734314E-1,9.822723541E0,9.843578106E0
1.643132921E1,6.265969849E-1,2.429447937E-1,9.784552917E0,9.807605301E0
1.644136021E1,6.487509155E-1,2.210902405E-1,9.751172333E0,9.775229947E0
1.645139121E1,6.623725891E-1,2.133064270E-1,9.755064240E0,9.779852524E0
1.646142221E1,6.780899048E-1,2.183958435E-1,9.790690155E0,9.816573556E0
1.647145321E1,6.912625122E-1,2.519261169E-1,9.817185059E0,9.844715999E0
1.648148421E1,6.830296326E-1,2.944377136E-1,9.847422180E0,9.875471971E0
1.649151621E1,6.397695923E-1,3.092568970E-1,9.857451324E0,9.883030485E0
1.650154721E1,6.262976074E-1,3.296145630E-1,9.841584320E0,9.866999361E0
1.651157821E1,6.010002136E-1,3.402424622E-1,9.810449066E0,9.834728114E0
1.652160921E1,5.896238708E-1,3.495231628E-1,9.774074707E0,9.798079359E0
1.653164021E1,5.803431702E-1,3.427871704E-1,9.800270233E0,9.823420885E0
1.654167121E1,5.902226257E-1,3.424877930E-1,9.828711090E0,9.852371406E0
1.655170221E1,6.291416931E-1,3.453318787E-1,9.860445099E0,9.886528760E0
1.656173321E1,6.670129395E-1,3.144960022E-1,9.860594788E0,9.888131449E0
1.657176421E1,6.896159363E-1,2.685415649E-1,9.899962921E0,9.927585333E0
1.658179521E1,7.074288940E-1,2.624043274E-1,9.924212494E0,9.952854128E0
1.659182621E1,6.764433289E-1,2.556683350E-1,9.930499420E0,9.956794696E0
1.660185721E1,6.806346130E-1,2.770738220E-1,9.911788330E0,9.938992971E0
1.661188821E1,6.595285034E-1,2.796185303E-1,9.877359924E0,9.903302653E0
1.662191921E1,6.372248840E-1,2.812651062E-1,9.858948212E0,9.883522927E0
1.663195021E1,6.593788147E-1,2.989283752E-1,9.812844086E0,9.839514604E0
1.664198121E1,6.448590088E-1,2.954855347E-1,9.808952179E0,9.834566472E0
1.665201321E1,6.448590088E-1,2.880010986E-1,9.834698639E0,9.860024599E0
1.666204421E1,6.483018494E-1,2.948867798E-1,9.833052063E0,9.858811611E0
1.667207521E1,6.480024719E-1,2.885998535E-1,9.846374359E0,9.871893694E0
