"Time (s)","Acceleration x (m/s^2)","Acceleration y (m/s^2)","Acceleration z (m/s^2)","Absolute acceleration (m/s^2)"
-1.687791664E-3,7.185058594E-2,2.086660767E-1,9.690847778E0,9.693360341E0
8.343208348E-3,1.020877075E-1,2.401007080E-1,9.615105286E0,9.618644390E0
1.837420836E-2,6.092330933E-2,2.685415649E-1,9.583221588E0,9.587176969E0
2.840520837E-2,-7.035369873E-3,2.721340942E-1,9.651329956E0,9.655168377E0
3.843620833E-2,-3.128494263E-2,2.755769348E-1,9.797575836E0,9.801500582E0
4.846820835E-2,-2.814147949E-2,2.350112915E-1,9.932445374E0,9.935265137E0
5.849920836E-2,7.634124756E-3,2.121089172E-1,1.003318588E1,1.003543060E1
6.853020837E-2,4.894821167E-2,1.824705505E-1,1.002794678E1,1.002972622E1
7.856120833E-2,7.229965210E-2,1.667532349E-1,9.984537048E0,9.986191163E0
8.859320835E-2,5.942642212E-2,1.669029236E-1,9.901310120E0,9.902895040E0
9.862420836E-2,3.457809448E-2,1.422042847E-1,9.835447083E0,9.836535824E0
1.086552084E-1,1.212478638E-2,1.288819885E-1,9.783355408E0,9.784211803E0
1.186862083E-1,-9.280700684E-3,1.303788757E-1,9.755363617E0,9.756239239E0
1.287172083E-1,-2.424957275E-2,1.321751404E-1,9.742191010E0,9.743117775E0
1.387492084E-1,-2.649490356E-2,1.345701599E-1,9.779014435E0,9.779976198E0
1.487802084E-1,-1.392105103E-2,1.339714050E-1,9.830207977E0,9.831130709E0
1.588112083E-1,-1.796264648E-3,1.404080200E-1,9.854756927E0,9.855757289E0
1.688422083E-1,1.077758789E-2,1.510359192E-1,9.871372375E0,9.872533645E0
1.788742084E-1,2.065704346E-2,1.678010559E-1,9.916129303E0,9.917570482E0
1.889052084E-1,1.811233521E-2,1.660047913E-1,9.883646851E0,9.885057446E0
1.989362083E-1,-1.197509766E-3,1.766326904E-1,9.837542725E0,9.839128386E0
2.089672083E-1,-2.125579834E-2,1.963916016E-1,9.814041595E0,9.816029437E0
2.189982084E-1,-4.251159668E-2,2.038760376E-1,9.819729767E0,9.821937964E0
2.290302084E-1,-5.358856201E-2,2.227368164E-1,9.848320312E0,9.850984540E0
2.390612083E-1,-3.682342529E-2,2.421963501E-1,9.876312103E0,9.879349968E0
2.490922083E-1,-2.499801636E-2,2.630030823E-1,9.887987823E0,9.891516503E0
2.591232084E-1,-2.874023438E-2,2.633024597E-1,9.866133270E0,9.869687933E0
2.691542084E-1,-1.317260742E-2,2.662962341E-1,9.860145721E0,9.863749837E0
2.791862083E-1,-5.089416504E-3,2.525248718E-1,9.864786072E0,9.868018999E0
2.892172083E-1,9.430389404E-3,2.119592285E-1,9.874665527E0,9.876944615E0
2.992482084E-1,4.490661621E-3,1.701960754E-1,9.898316345E0,9.899780469E0
3.092792084E-1,2.035766602E-2,1.531315613E-1,9.876312103E0,9.877520158E0
3.193112083E-1,1.362167358E-2,1.234931946E-1,9.800719299E0,9.801506767E0
3.293422083E-1,2.544708252E-3,1.387614441E-1,9.792336731E0,9.793320166E0
3.393732083E-1,-1.047821045E-3,1.414558411E-1,9.864187317E0,9.865201583E0
3.494042084E-1,3.742218018E-2,1.495390320E-1,1.000893631E1,1.001012330E1
3.594352084E-1,9.774673462E-2,1.526824951E-1,1.008872040E1,1.009034913E1
3.694672083E-1,1.017883301E-1,1.276844788E-1,9.896520081E0,9.897867139E0
3.794982083E-1,2.245330811E-2,1.225950623E-1,9.745783539E0,9.746580451E0
3.895292084E-1,-4.415817261E-2,1.317260742E-1,9.733059998E0,9.734051501E0
3.995602084E-1,-6.496490479E-2,1.368154907E-1,9.784103851E0,9.785276035E0
4.095922083E-1,-5.269042969E-2,1.344204712E-1,9.853559418E0,9.854617108E0
4.196232083E-1,-3.442840576E-3,1.625619507E-1,9.833800507E0,9.835144668E0
4.296542084E-1,6.406677246E-2,1.895059204E-1,9.758656769E0,9.760706889E0
4.396852084E-1,7.604187012E-2,2.173480225E-1,9.721084900E0,9.723811709E0
4.497162083E-1,5.074447632E-2,2.597099304E-1,9.760303345E0,9.763889882E0
4.597482083E-1,8.681945801E-3,2.748284912E-1,9.842033386E0,9.845873615E0
4.697792084E-1,-1.841171265E-2,2.859054565E-1,9.934241638E0,9.938371992E0
4.798102084E-1,-3.861968994E-2,2.588117981E-1,9.963131561E0,9.966567390E0
4.898412083E-1,-2.170486450E-2,2.600093079E-1,9.960437164E0,9.963853895E0
4.998732083E-1,1.137634277E-2,2.386038208E-1,9.952204285E0,9.955070634E0
5.099042084E-1,2.649490356E-2,2.163002014E-1,9.954898682E0,9.957283541E0
5.199352084E-1,1.152603149E-2,1.803749084E-1,9.939480743E0,9.941123951E0
5.299662083E-1,-4.939727783E-3,1.484912109E-1,9.910291443E0,9.911405073E0
5.399972083E-1,-8.382568359E-3,1.293310547E-1,9.861792297E0,9.862643870E0
5.500292084E-1,-4.939727783E-3,1.377136230E-1,9.796977081E0,9.797946181E0
5.600602084E-1,-2.200424194E-2,1.399589539E-1,9.780511322E0,9.781537426E0
5.700912083E-1,-2.888992310E-2,1.445993042E-1,9.753717041E0,9.754831608E0
5.801222083E-1,-5.239105225E-3,1.573228455E-1,9.775721283E0,9.776988520E0
5.901532084E-1,1.586700439E-2,1.547781372E-1,9.819430389E0,9.820662972E0
6.001852084E-1,2.694396973E-2,1.537303162E-1,9.855355682E0,9.856591430E0
6.102162083E-1,4.116439819E-2,1.637594604E-1,9.878108368E0,9.879551437E0
6.202472083E-1,4.535568237E-2,1.748364258E-1,9.883946228E0,9.885596489E0
6.302782084E-1,2.185455322E-2,1.829196167E-1,9.817185059E0,9.818913366E0
6.403102084E-1,-2.574645996E-2,2.040257263E-1,9.802665253E0,9.804822050E0
6.503412083E-1,-3.727249146E-2,2.212399292E-1,9.829160156E0,9.831720385E0
6.603722083E-1,-5.508544922E-2,2.309696960E-1,9.829160156E0,9.832027806E0
6.704032084E-1,-2.185455322E-2,2.127076721E-1,9.849817200E0,9.852137892E0
6.804342084E-1,1.032852173E-2,1.953437805E-1,9.871072998E0,9.873011091E0
6.904662083E-1,3.861968994E-2,1.709445190E-1,9.890831909E0,9.892384413E0
7.004972083E-1,5.388793945E-2,1.576222229E-1,9.923763428E0,9.925161422E0
7.105285417E-1,5.553451538E-2,1.649569702E-1,9.934990082E0,9.936514621E0
7.205595417E-1,4.670288086E-2,1.722917175E-1,9.918224945E0,9.919831231E0
7.305905417E-1,1.227447510E-2,1.874102783E-1,9.918224945E0,9.920002991E0
7.406225417E-1,1.661544800E-2,2.068698120E-1,9.885892181E0,9.888070358E0
7.506535417E-1,1.407073975E-2,2.207908630E-1,9.860744476E0,9.863226055E0
7.606845417E-1,2.874023438E-2,2.273771667E-1,9.846224670E0,9.848891645E0
7.707155417E-1,1.526824951E-2,2.124082947E-1,9.850865021E0,9.853166601E0
7.807475417E-1,3.263214111E-2,2.163002014E-1,9.861193542E0,9.863619453E0
7.907785417E-1,3.203338623E-2,2.125579834E-1,9.858349457E0,9.860692726E0
8.008095417E-1,1.841171265E-2,2.125579834E-1,9.839638367E0,9.841951182E0
8.108405417E-1,1.481918335E-2,1.838177490E-1,9.822723541E0,9.824454506E0
8.208715417E-1,7.484436035E-4,1.541793823E-1,9.825867004E0,9.827076586E0
8.309035417E-1,-2.095642090E-3,1.386117554E-1,9.829309845E0,9.830287363E0
8.409345417E-1,-7.334747314E-3,1.127156067E-1,9.836943970E0,9.837592453E0
8.509655417E-1,7.634124756E-3,9.235794067E-2,9.861343231E0,9.861778673E0
8.609965417E-1,1.751358032E-2,8.891510010E-2,9.864037628E0,9.864453910E0
8.710285417E-1,2.874023438E-2,9.999206543E-2,9.843679962E0,9.844229762E0
8.810595417E-1,1.257385254E-2,1.213975525E-1,9.817933502E0,9.818692058E0
8.910905417E-1,1.601669312E-2,1.332229614E-1,9.810299377E0,9.811216987E0
9.011215417E-1,2.095642090E-3,1.552272034E-1,9.821376343E0,9.822603175E0
9.111525417E-1,-2.395019531E-3,1.549278259E-1,9.835596771E0,9.836817179E0
9.211845417E-1,-2.125579834E-2,1.525328064E-1,9.841883698E0,9.843088579E0
9.312155417E-1,-2.514770508E-2,1.477427673E-1,9.846673737E0,9.847814174E0
9.412465417E-1,-3.637435913E-2,1.456471252E-1,9.866732025E0,9.867873988E0
9.512775417E-1,-2.829116821E-2,1.634600830E-1,9.883347473E0,9.884739595E0
9.613085417E-1,-2.559677124E-2,1.821711731E-1,9.914632416E0,9.916338915E0
9.713405417E-1,-1.212478638E-2,2.143542480E-1,9.899513855E0,9.901841713E0
9.813715417E-1,-2.844085693E-3,2.459385681E-1,9.855056305E0,9.858125006E0
9.914025417E-1,-1.826202393E-2,2.561174011E-1,9.832303619E0,9.835655753E0
1.001433542E0,-1.691482544E-2,2.451901245E-1,9.824819183E0,9.827892770E0
1.011465542E0,-4.939727783E-3,2.137554932E-1,9.844129028E0,9.846450738E0
1.021496542E0,9.729766846E-3,1.724414062E-1,9.858050079E0,9.859562976E0
1.031527542E0,9.280700684E-3,1.652563477E-1,9.872869263E0,9.874256593E0
1.041558542E0,2.245330811E-2,1.438508606E-1,9.864935760E0,9.866010074E0
1.051589542E0,1.212478638E-2,1.428030396E-1,9.841135254E0,9.842178763E0
1.061621542E0,7.185058594E-3,1.230441284E-1,9.859996033E0,9.860766362E0
1.071652542E0,2.514770508E-2,1.255888367E-1,9.916728058E0,9.917555159E0
1.081683542E0,5.418731689E-2,1.070274353E-1,1.005878265E1,1.005949798E1
1.091714542E0,1.013392639E-1,9.834548950E-2,1.005369324E1,1.005468494E1
1.101746542E0,9.400451660E-2,9.355545044E-2,9.832004242E0,9.832898702E0
1.111777542E0,1.496887207E-4,9.565109253E-2,9.755662994E0,9.756131898E0
1.121808542E0,-3.652404785E-2,1.085243225E-1,9.761949921E0,9.762621461E0
1.131839542E0,-2.559677124E-2,1.199006653E-1,9.817035370E0,9.817800916E0
1.141870542E0,-9.280700684E-3,1.389111328E-1,9.821975098E0,9.822961735E0
1.151902542E0,4.101470947E-2,1.498384094E-1,9.775421906E0,9.776656237E0
1.161933542E0,6.271957397E-2,1.987866211E-1,9.705666962E0,9.707905080E0
1.171964542E0,4.430786133E-2,2.378553772E-1,9.720336456E0,9.723347119E0
1.181995542E0,5.239105225E-3,2.508782959E-1,9.795031128E0,9.798244851E0
1.192026542E0,-2.200424194E-2,2.589614868E-1,9.898316345E0,9.901727713E0
1.202058542E0,-3.861968994E-2,2.469863892E-1,9.950258331E0,9.953398144E0
1.212089542E0,-1.152603149E-2,2.381547546E-1,9.971065063E0,9.973915432E0
1.222120542E0,3.038681030E-2,2.257305908E-1,9.976453857E0,9.979053524E0
1.232151542E0,3.667373657E-2,2.020797729E-1,9.959389343E0,9.961506778E0
1.242183542E0,3.622467041E-2,1.558259583E-1,9.956994324E0,9.958279466E0
1.252214542E0,1.362167358E-2,1.393601990E-1,9.923464050E0,9.924451903E0
1.262245542E0,-3.442840576E-3,1.155596924E-1,9.890682220E0,9.891357879E0
1.272276542E0,-1.451980591E-2,9.445358276E-2,9.839788055E0,9.840252094E0
1.282307542E0,-9.131011963E-3,1.167572021E-1,9.804910583E0,9.805609985E0
1.292339542E0,1.496887207E-4,1.073268127E-1,9.798623657E0,9.799211430E0
1.302370542E0,1.257385254E-2,1.219963074E-1,9.808802490E0,9.809569180E0
1.312401542E0,3.367996216E-2,1.196012878E-1,9.856403503E0,9.857186659E0
1.322432542E0,4.296066284E-2,1.326242065E-1,9.887838135E0,9.888820849E0
1.332463542E0,5.239105225E-2,1.320254517E-1,9.886341248E0,9.887361569E0
1.342495542E0,5.298980713E-2,1.535806274E-1,9.884694672E0,9.886029723E0
1.352526542E0,4.790039063E-2,1.764830017E-1,9.824519806E0,9.826221558E0
1.362557542E0,3.727249146E-2,1.941462708E-1,9.785600739E0,9.787597449E0
1.372588542E0,1.751358032E-2,2.275268555E-1,9.784552917E0,9.787213648E0
1.382620542E0,-5.388793945E-3,2.450404358E-1,9.811197510E0,9.814258527E0
1.392651542E0,-1.496887207E-4,2.201921082E-1,9.828262024E0,9.830728305E0
1.402682542E0,1.227447510E-2,1.875599670E-1,9.827962646E0,9.829759874E0
1.412713542E0,1.511856079E-2,1.892065430E-1,9.879006500E0,9.880829779E0
1.422744542E0,3.517684937E-2,1.719923401E-1,9.929152222E0,9.930704034E0
1.432776542E0,5.912704468E-2,1.817221069E-1,9.946965179E0,9.948800692E0
1.442807542E0,6.481521606E-2,1.924996948E-1,9.942624207E0,9.944698751E0
1.452838542E0,6.586303711E-2,2.004331970E-1,9.933642883E0,9.935883068E0
1.462869542E0,5.658233643E-2,2.130070496E-1,9.917476501E0,9.919925086E0
1.472901542E0,4.550537109E-2,2.198927307E-1,9.885293427E0,9.887843530E0
1.482932542E0,3.951782227E-2,2.308200073E-1,9.875563660E0,9.878339796E0
1.492963542E0,5.807922363E-2,2.287243652E-1,9.879904633E0,9.882722478E0
1.502994542E0,6.242019653E-2,2.342628479E-1,9.891280975E0,9.894251599E0
1.513025542E0,6.511459351E-2,2.279759216E-1,9.857900391E0,9.860751140E0
1.523057542E0,5.224136353E-2,2.133064270E-1,9.833950195E0,9.836402047E0
1.533088542E0,4.026626587E-2,1.871109009E-1,9.796827393E0,9.798696792E0
1.543119542E0,1.901046753E-2,1.543290710E-1,9.810000000E0,9.811232280E0
1.553150542E0,1.347198486E-2,1.258882141E-1,9.831106110E0,9.831921311E0
1.563181542E0,1.766326904E-2,1.139131165E-1,9.848769379E0,9.849443967E0
1.573213542E0,4.595443726E-2,1.031355286E-1,9.861792297E0,9.862438647E0
1.583244542E0,4.535568237E-2,1.028361511E-1,9.845925293E0,9.846566777E0
1.593275542E0,5.658233643E-2,1.221459961E-1,9.831106110E0,9.832027692E0
1.603306542E0,6.316864014E-2,1.267863464E-1,9.835447083E0,9.836467067E0
1.613338542E0,6.227050781E-2,1.393601990E-1,9.840536499E0,9.841720250E0
1.623369542E0,5.703140259E-2,1.463955688E-1,9.839638367E0,9.840892614E0
1.633400542E0,4.236190796E-2,1.552272034E-1,9.844428406E0,9.845743276E0
1.643431542E0,4.191284180E-2,1.576222229E-1,9.861941986E0,9.863290586E0
1.653462542E0,3.622467041E-2,1.713935852E-1,9.871671753E0,9.873225977E0
1.663494542E0,2.200424194E-2,1.901046753E-1,9.855505371E0,9.857363242E0
1.673525542E0,1.182540894E-2,1.869612122E-1,9.864636383E0,9.866415018E0
1.683556542E0,4.640350342E-3,2.070195007E-1,9.881251831E0,9.883421288E0
1.693587542E0,1.631607056E-2,2.161505127E-1,9.887838135E0,9.890213862E0
1.703618542E0,1.945953369E-2,2.469863892E-1,9.870773621E0,9.873882358E0
1.713650208E0,1.601669312E-2,2.716850281E-1,9.853709106E0,9.857466837E0
1.723681208E0,4.355941772E-2,2.616558838E-1,9.863139496E0,9.866705729E0
1.733712208E0,5.194198608E-2,2.348616028E-1,9.862540741E0,9.865473522E0
1.743743208E0,6.361770630E-2,2.059716797E-1,9.887838135E0,9.890187790E0
1.753775208E0,5.433700562E-2,1.866618347E-1,9.900561676E0,9.902470230E0
1.763806208E0,5.897735596E-2,1.707948303E-1,9.893825684E0,9.895475525E0
1.773837208E0,6.152206421E-2,1.826202393E-1,9.856553192E0,9.858436790E0
1.783868208E0,5.149291992E-2,1.814227295E-1,9.821825409E0,9.823635788E0
1.793899208E0,7.319778442E-2,1.954934692E-1,9.816586304E0,9.818805542E0
1.803931208E0,9.714797974E-2,1.995350647E-1,9.902657318E0,9.905143812E0
1.813962208E0,1.335223389E-1,1.829196167E-1,1.000444565E1,1.000700857E1
1.823993208E0,1.606159973E-1,1.613644409E-1,9.925410004E0,9.928020937E0
1.834024208E0,1.212478638E-1,1.423539734E-1,9.782157898E0,9.783944953E0
1.844055208E0,3.951782227E-2,1.213975525E-1,9.793534241E0,9.794366337E0
1.854087208E0,3.278182983E-2,1.258882141E-1,9.833950195E0,9.834810569E0
1.864118208E0,3.158432007E-2,1.149609375E-1,9.882299652E0,9.883018770E0
1.874149208E0,3.637435913E-2,1.362167358E-1,9.836345215E0,9.837355604E0
1.884180208E0,7.140151978E-2,1.779798889E-1,9.743238831E0,9.745125855E0
1.894212208E0,8.038284302E-2,2.510279846E-1,9.708810425E0,9.712387776E0
1.904243208E0,8.966354370E-2,3.031196594E-1,9.744586029E0,9.749711686E0
1.914274208E0,9.639953613E-2,3.170407104E-1,9.831106110E0,9.836689231E0
1.924305208E0,9.235794067E-2,3.264710999E-1,9.896370392E0,9.902184623E0
1.934336208E0,8.352630615E-2,3.173400879E-1,9.944570160E0,9.949982766E0
1.944368208E0,1.064286804E-1,2.900967407E-1,9.950108643E0,9.954905584E0
1.954399208E0,1.188528442E-1,2.543211365E-1,9.980046387E0,9.983993746E0
1.964430208E0,1.082249451E-1,2.064207458E-1,9.986632690E0,9.989352064E0
1.974461208E0,7.155120850E-2,1.681004333E-1,9.936337280E0,9.938016697E0
1.984492208E0,4.460723877E-2,1.642085266E-1,9.873468018E0,9.874934174E0
1.994524208E0,3.442840576E-2,1.637594604E-1,9.767787781E0,9.769221085E0
2.004555208E0,2.529739380E-2,1.764830017E-1,9.728868713E0,9.730502179E0
2.014586208E0,3.832031250E-2,2.073188782E-1,9.751172333E0,9.753451257E0
2.024617208E0,5.239105225E-2,2.052232361E-1,9.769434357E0,9.771730095E0
2.034649208E0,8.487350464E-2,2.127076721E-1,9.839488678E0,9.842153500E0
2.044680208E0,1.145118713E-1,2.092648315E-1,9.895322571E0,9.898197488E0
2.054711208E0,1.359173584E-1,2.020797729E-1,9.911788330E0,9.914779759E0
2.064742208E0,1.236428833E-1,2.104623413E-1,9.906848602E0,9.909855256E0
2.074773208E0,1.228944397E-1,2.049238586E-1,9.889634399E0,9.892520679E0
2.084805208E0,9.086105347E-2,2.168989563E-1,9.851164398E0,9.853970818E0
2.094836208E0,5.328918457E-2,2.218386841E-1,9.801318054E0,9.803973059E0
2.104867208E0,2.799179077E-2,2.215393066E-1,9.792486420E0,9.795032082E0
2.114898208E0,2.499801636E-2,2.242337036E-1,9.805209961E0,9.807805465E0
2.124929208E0,6.541397095E-2,2.345622253E-1,9.826765137E0,9.829781863E0
2.134961208E0,1.085243225E-1,2.119592285E-1,9.859097900E0,9.861973213E0
2.144992208E0,1.234931946E-1,2.086660767E-1,9.902058563E0,9.905026799E0
2.155023208E0,1.423539734E-1,1.959425354E-1,9.921967163E0,9.924922696E0
2.165054208E0,1.336720276E-1,2.180964661E-1,9.918973389E0,9.922271281E0
2.175085208E0,1.079255676E-1,2.514770508E-1,9.900711365E0,9.904492625E0
2.185117208E0,8.891510010E-2,2.730322266E-1,9.874815216E0,9.878989222E0
2.195148208E0,9.026229858E-2,2.811154175E-1,9.885443115E0,9.889851300E0
2.205179208E0,9.714797974E-2,2.845582581E-1,9.853709106E0,9.858295709E0
2.215210208E0,1.068777466E-1,2.839595032E-1,9.855655060E0,9.860324158E0
2.225242208E0,1.187031555E-1,2.841091919E-1,9.866432648E0,9.871236076E0
2.235273208E0,1.124162292E-1,2.649490356E-1,9.872420197E0,9.876614599E0
2.245304208E0,1.010398865E-1,2.450404358E-1,9.864187317E0,9.867747732E0
2.255335208E0,1.029858398E-1,2.272274780E-1,9.840087433E0,9.843249418E0
2.265366208E0,8.277786255E-2,2.148033142E-1,9.813143463E0,9.815843177E0
2.275398208E0,6.301895142E-2,2.032772827E-1,9.812993774E0,9.815301313E0
2.285429208E0,5.343887329E-2,1.649569702E-1,9.823172607E0,9.824702875E0
2.295460208E0,6.825805664E-2,1.499880981E-1,9.852810974E0,9.854188941E0
2.305491208E0,7.155120850E-2,1.326242065E-1,9.857601013E0,9.858752786E0
2.315522208E0,8.292755127E-2,1.357676697E-1,9.869127045E0,9.870409235E0
2.325554208E0,1.125659180E-1,1.504371643E-1,9.843979340E0,9.845772274E0
2.335585208E0,9.774673462E-2,1.526824951E-1,9.825717316E0,9.827389640E0
2.345616208E0,9.744735718E-2,1.718426514E-1,9.830806732E0,9.832791409E0
2.355647208E0,1.118174744E-1,1.787283325E-1,9.830956421E0,9.833216723E0
2.365679208E0,1.070274353E-1,1.800755310E-1,9.834698639E0,9.836929368E0
2.375710208E0,1.019380188E-1,1.989363098E-1,9.870174866E0,9.872705753E0
2.385741208E0,9.999206543E-2,2.091151428E-1,9.891430664E0,9.894146155E0
2.395772208E0,7.634124756E-2,2.285746765E-1,9.882748718E0,9.885686450E0
2.405803208E0,5.957611084E-2,2.547702026E-1,9.869725800E0,9.873193229E0
2.415835208E0,4.460723877E-2,2.688409424E-1,9.845925293E0,9.849695941E0
2.425866208E0,3.802093506E-2,2.724334717E-1,9.828112335E0,9.831961028E0
2.435897208E0,4.520599365E-2,2.805166626E-1,9.839638367E0,9.843739958E0
2.445928208E0,5.343887329E-2,2.480342102E-1,9.847571869E0,9.850839984E0
2.455959208E0,6.795867920E-2,2.266287231E-1,9.883646851E0,9.886478343E0
2.465991208E0,9.535171509E-2,2.142045593E-1,9.917476501E0,9.920247764E0
2.476022208E0,1.137634277E-1,2.104623413E-1,9.876461792E0,9.879358989E0
2.486053208E0,1.196012878E-1,2.198927307E-1,9.865235138E0,9.868410288E0
2.496084208E0,1.255888367E-1,2.466870117E-1,9.851763153E0,9.855651387E0
2.506115208E0,1.091230774E-1,2.415975952E-1,9.839338989E0,9.842909579E0
2.516147208E0,1.276844788E-1,2.091151428E-1,9.903106384E0,9.906136912E0
2.526178208E0,1.519340515E-1,1.893562317E-1,9.963730316E0,9.966687592E0
2.536209208E0,1.540296936E-1,1.651066589E-1,9.851912842E0,9.854500089E0
2.546240208E0,8.247848511E-2,1.471440125E-1,9.755812683E0,9.757270887E0
2.556272208E0,3.472778320E-2,1.296304321E-1,9.770332489E0,9.771254117E0
2.566303208E0,4.370910645E-2,1.203497314E-1,9.836345215E0,9.837178545E0
2.576334208E0,4.565505981E-2,1.169068909E-1,9.861193542E0,9.861992176E0
2.586365208E0,9.190887451E-2,1.529818726E-1,9.829908600E0,9.831528557E0
2.596396208E0,1.137634277E-1,2.068698120E-1,9.763596497E0,9.766450419E0
2.606428208E0,1.386117554E-1,2.871029663E-1,9.774224396E0,9.779422471E0
2.616459208E0,1.486408997E-1,3.257226562E-1,9.806108093E0,9.812642116E0
2.626490208E0,1.703457642E-1,3.608995056E-1,9.873018951E0,9.881081386E0
2.636521208E0,1.598675537E-1,3.622467041E-1,9.920619965E0,9.928518560E0
2.646552208E0,1.416055298E-1,3.110531616E-1,9.975855103E0,9.981707831E0
2.656584208E0,1.242416382E-1,2.746788025E-1,9.991123352E0,9.995670576E0
2.666615208E0,6.601272583E-2,2.231858826E-1,9.995464325E0,9.998173668E0
2.676646208E0,3.098556519E-2,1.749861145E-1,9.963131561E0,9.964716291E0
2.686677208E0,1.332229614E-2,1.570234680E-1,9.885443115E0,9.886699117E0
2.696709208E0,3.143463135E-2,1.709445190E-1,9.811945953E0,9.813485291E0
2.706740208E0,6.511459351E-2,1.930984497E-1,9.763446808E0,9.765573229E0
2.716770792E0,1.040336609E-1,2.438429260E-1,9.754764862E0,9.758366661E0
2.726801792E0,1.556762695E-1,2.520758057E-1,9.741592255E0,9.746096499E0
2.736832792E0,1.703457642E-1,2.628533936E-1,9.795779572E0,9.800786040E0
2.746864792E0,1.799258423E-1,2.556683350E-1,9.818681946E0,9.823657911E0
2.756895792E0,1.574725342E-1,2.305206299E-1,9.818981323E0,9.822949231E0
2.766926792E0,1.293310547E-1,2.137554932E-1,9.863588562E0,9.866752113E0
2.776957792E0,1.134640503E-1,1.808239746E-1,9.897118835E0,9.899420824E0
2.786988792E0,1.016386414E-1,1.779798889E-1,9.923913116E0,9.926029357E0
2.797020792E0,8.906478882E-2,1.847158813E-1,9.878707123E0,9.880835335E0
2.807051792E0,9.026229858E-2,2.139051819E-1,9.857151947E0,9.859885761E0
2.817082792E0,8.217910767E-2,2.201921082E-1,9.840686188E0,9.843492399E0
2.827113792E0,1.028361511E-1,2.354603577E-1,9.843530273E0,9.846883014E0
2.837144792E0,1.297801208E-1,2.438429260E-1,9.835746460E0,9.839624519E0
2.847176792E0,1.356179810E-1,2.240840149E-1,9.846374359E0,9.849857557E0
2.857207792E0,1.353186035E-1,2.056723022E-1,9.878108368E0,9.881175899E0
2.867238792E0,1.532812500E-1,2.076182556E-1,9.905202026E0,9.908563350E0
2.877269792E0,1.103205872E-1,2.067201233E-1,9.885592804E0,9.888369377E0
2.887300792E0,8.981323242E-2,2.189945984E-1,9.858798523E0,9.861639487E0
2.897332792E0,8.771759033E-2,2.432441711E-1,9.868827667E0,9.872214626E0
2.907363792E0,1.104702759E-1,2.736309814E-1,9.867630157E0,9.872041457E0
2.917394792E0,1.588197327E-1,2.938389587E-1,9.850266266E0,9.855927686E0
2.927425792E0,1.514849854E-1,3.230282593E-1,9.851613464E0,9.858071962E0
2.937457792E0,1.634600830E-1,3.252735901E-1,9.872719574E0,9.879428824E0
2.947488792E0,1.450483704E-1,3.129991150E-1,9.894574127E0,9.900586075E0
2.957519792E0,1.251397705E-1,2.888992310E-1,9.893376617E0,9.898384900E0
2.967550792E0,9.011260986E-2,2.366578674E-1,9.878856812E0,9.882101959E0
2.977581792E0,7.858657837E-2,1.981878662E-1,9.858798523E0,9.861103518E0
2.987613792E0,6.541397095E-2,1.589694214E-1,9.852960663E0,9.854460111E0
2.997644792E0,6.391708374E-2,1.218466187E-1,9.877659302E0,9.878617579E0
3.007675792E0,7.529342651E-2,1.026864624E-1,9.876910858E0,9.877731607E0
3.017706792E0,9.340576172E-2,1.098715210E-1,9.855056305E0,9.856111361E0
3.027737792E0,1.239422607E-1,1.181044006E-1,9.846374359E0,9.847862629E0
3.037769792E0,1.399589539E-1,1.431024170E-1,9.824819183E0,9.826858033E0
3.047800792E0,1.185534668E-1,1.654060364E-1,9.803563385E0,9.805675353E0
3.057831792E0,1.234931946E-1,1.645079041E-1,9.827962646E0,9.830115116E0
3.067862792E0,1.302291870E-1,1.874102783E-1,9.830207977E0,9.832856713E0
3.077893792E0,1.330732727E-1,2.055226135E-1,9.826166382E0,9.829216337E0
3.087925792E0,1.182540894E-1,2.055226135E-1,9.838291168E0,9.841148139E0
3.097956792E0,8.891510010E-2,2.142045593E-1,9.866282959E0,9.869008507E0
3.107987792E0,6.571334839E-2,2.314187622E-1,9.886490936E0,9.889417370E0
3.118018792E0,6.496490479E-2,2.481838989E-1,9.876312103E0,9.879643538E0
3.128050792E0,8.307723999E-2,2.613565063E-1,9.841284943E0,9.845105300E0
3.138081792E0,7.484436035E-2,2.610571289E-1,9.813442841E0,9.817199850E0
3.148112792E0,8.247848511E-2,2.424957275E-1,9.804611206E0,9.807956351E0
3.158143792E0,9.310638428E-2,2.082170105E-1,9.845027161E0,9.847668908E0
3.168174792E0,1.154100037E-1,1.983375549E-1,9.874964905E0,9.877630745E0
3.178206792E0,1.528321838E-1,2.143542480E-1,9.898765411E0,9.902265503E0
3.188237792E0,1.598675537E-1,2.116598511E-1,9.890682220E0,9.894238339E0
3.198268792E0,1.519340515E-1,2.351609802E-1,9.876162415E0,9.880129993E0
3.208299792E0,1.525328064E-1,2.417472839E-1,9.871522064E0,9.875659769E0
3.218330792E0,1.640588379E-1,2.300715637E-1,9.869276733E0,9.873321197E0
3.228362792E0,1.715432739E-1,1.907034302E-1,9.927655334E0,9.930968499E0
3.238393792E0,1.939965820E-1,1.672023010E-1,9.962682495E0,9.965973800E0
3.248424792E0,1.704954529E-1,1.547781372E-1,9.816286926E0,9.818987422E0
3.258455792E0,9.610015869E-2,1.428030396E-1,9.710756378E0,9.712281781E0
3.268486792E0,4.116439819E-2,1.125659180E-1,9.748477936E0,9.749214720E0
3.278518792E0,2.933898926E-2,8.577163696E-2,9.796528015E0,9.796947418E0
3.288549792E0,4.520599365E-2,9.310638428E-2,9.821226654E0,9.821772008E0
3.298580792E0,6.451583862E-2,1.528321838E-1,9.811347198E0,9.812749554E0
3.308611792E0,1.440005493E-1,2.204914856E-1,9.774972839E0,9.778519656E0
3.318643792E0,2.164498901E-1,2.962339783E-1,9.800270233E0,9.807135248E0
3.328674792E0,2.655477905E-1,3.450325012E-1,9.840985565E0,9.850612161E0
3.338705792E0,2.692900085E-1,3.477268982E-1,9.897867279E0,9.907633813E0
3.348736792E0,2.427951050E-1,3.359014893E-1,9.957892456E0,9.966514006E0
3.358767792E0,1.978884888E-1,2.963836670E-1,9.996512146E0,1.000286250E1
3.368799792E0,1.320254517E-1,2.438429260E-1,9.999505920E0,1.000334988E1
3.378830792E0,6.795867920E-2,1.948947144E-1,9.974956970E0,9.977092206E0
3.388861792E0,3.143463135E-2,1.695973206E-1,9.891730042E0,9.893233779E0
3.398892792E0,2.993774414E-2,1.526824951E-1,9.817933502E0,9.819166282E0
3.408923792E0,6.406677246E-2,1.597178650E-1,9.804611206E0,9.806121315E0
3.418955792E0,1.294807434E-1,1.715432739E-1,9.793683929E0,9.796041918E0
3.428986792E0,1.884580994E-1,2.151026917E-1,9.786199493E0,9.790377222E0
3.439017792E0,2.296224976E-1,2.435435486E-1,9.792486420E0,9.798205460E0
3.449048792E0,2.372566223E-1,2.612068176E-1,9.833800507E0,9.840129680E0
3.459079792E0,2.303709412E-1,2.585124207E-1,9.883946228E0,9.890009731E0
3.469111792E0,1.905537415E-1,2.177970886E-1,9.908345490E0,9.912570637E0
3.479142792E0,1.429527283E-1,1.924996948E-1,9.899513855E0,9.902417189E0
3.489173792E0,1.270857239E-1,1.803749084E-1,9.902058563E0,9.904516630E0
3.499204792E0,1.083746338E-1,1.739382935E-1,9.853559418E0,9.855690376E0
3.509235792E0,9.595046997E-2,1.815724182E-1,9.797276459E0,9.799428608E0
3.519267792E0,9.340576172E-2,1.947450256E-1,9.790839844E0,9.793221896E0
3.529298792E0,1.017883301E-1,2.130070496E-1,9.816586304E0,9.819424603E0
3.539329792E0,1.290316772E-1,2.284249878E-1,9.850116577E0,9.853609680E0
3.549360792E0,1.851649475E-1,2.080673218E-1,9.845925293E0,9.849864108E0
3.559392792E0,2.140548706E-1,1.924996948E-1,9.866881714E0,9.871080507E0
3.569423792E0,2.269281006E-1,1.736389160E-1,9.890981598E0,9.895108074E0
3.579454792E0,1.977388000E-1,1.821711731E-1,9.904154205E0,9.907802859E0
3.589485792E0,1.718426514E-1,1.874102783E-1,9.871821442E0,9.875095498E0
3.599516792E0,1.480421448E-1,2.062710571E-1,9.850715332E0,9.853986847E0
3.609548792E0,1.463955688E-1,2.429447937E-1,9.845176849E0,9.849261954E0
3.619579792E0,1.360670471E-1,2.653981018E-1,9.833501129E0,9.838022914E0
3.629610792E0,1.484912109E-1,2.639012146E-1,9.849817200E0,9.854470679E0
3.639641792E0,1.342707825E-1,2.513273621E-1,9.862391052E0,9.866506543E0
3.649672792E0,1.118174744E-1,2.351609802E-1,9.880802765E0,9.884233259E0
3.659704792E0,1.092727661E-1,2.146536255E-1,9.877659302E0,9.880595630E0
3.669735792E0,1.127156067E-1,1.963916016E-1,9.864187317E0,9.866785996E0
3.679766792E0,1.059796143E-1,1.618135071E-1,9.844428406E0,9.846328551E0
3.689797792E0,1.386117554E-1,1.366658020E-1,9.826914825E0,9.828842544E0
3.699828792E0,1.583706665E-1,1.260379028E-1,9.840536499E0,9.842617813E0
3.709860792E0,1.672023010E-1,1.207987976E-1,9.867031403E0,9.869187285E0
3.719892292E0,1.833686829E-1,1.359173584E-1,9.862091675E0,9.864732627E0
3.729923292E0,1.731898499E-1,1.368154907E-1,9.876761169E0,9.879226913E0
3.739954292E0,1.544787598E-1,1.390608215E-1,9.857002258E0,9.859193431E0
3.749985292E0,1.475930786E-1,1.543290710E-1,9.841734009E0,9.844050461E0
3.760017292E0,1.076261902E-1,1.697470093E-1,9.815837860E0,9.817895413E0
3.770048292E0,1.077758789E-1,1.552272034E-1,9.815388794E0,9.817207765E0
3.780079292E0,9.565109253E-2,1.573228455E-1,9.836494904E0,9.838217908E0
3.790110292E0,1.188528442E-1,1.636097717E-1,9.850865021E0,9.852940465E0
3.800142292E0,1.260379028E-1,1.484912109E-1,9.837842102E0,9.839769937E0
3.810173292E0,1.431024170E-1,1.546284485E-1,9.848170624E0,9.850423996E0
3.820204292E0,1.402583313E-1,1.910028076E-1,9.890831909E0,9.893670215E0
3.830235292E0,1.294807434E-1,1.933978271E-1,9.921817474E0,9.924546840E0
3.840266292E0,1.215472412E-1,2.234852600E-1,9.880054321E0,9.883329034E0
3.850298292E0,1.239422607E-1,2.546205139E-1,9.820328522E0,9.824410698E0
3.860329292E0,1.425036621E-1,2.644999695E-1,9.784552917E0,9.789164588E0
3.870360292E0,1.312770081E-1,2.474354553E-1,9.783056030E0,9.787065099E0
3.880391292E0,1.282832336E-1,2.209405518E-1,9.827663269E0,9.830983503E0
3.890422292E0,1.344204712E-1,1.752854919E-1,9.909093933E0,9.911555702E0
3.900454292E0,1.573228455E-1,1.739382935E-1,9.927355957E0,9.930125946E0
3.910485292E0,1.414558411E-1,1.826202393E-1,9.874216461E0,9.876918073E0
3.920516292E0,1.221459961E-1,1.785786438E-1,9.840835876E0,9.843213943E0
3.930547292E0,1.302291870E-1,1.875599670E-1,9.846074982E0,9.848722299E0
3.940578292E0,1.216969299E-1,1.501377869E-1,9.888736267E0,9.890624675E0
3.950610292E0,1.601669312E-1,1.287322998E-1,9.959688721E0,9.961808313E0
3.960641292E0,2.008822632E-1,1.013392639E-1,9.982591095E0,9.985126354E0
3.970672292E0,1.746867371E-1,1.088237000E-1,9.852062531E0,9.854212001E0
3.980703292E0,9.400451660E-2,1.059796143E-1,9.751022644E0,9.752051637E0
3.990734292E0,6.601272583E-2,1.110690308E-1,9.782606964E0,9.783460176E0
4.000766292E0,8.038284302E-2,1.169068909E-1,9.840237122E0,9.841259840E0
4.010797292E0,6.930587769E-2,1.164578247E-1,9.841734009E0,9.842667018E0
4.020828292E0,8.023315430E-2,1.342707825E-1,9.782756653E0,9.784007039E0
4.030859292E0,1.047821045E-1,1.779798889E-1,9.731862488E0,9.734053812E0
4.040890292E0,1.252894592E-1,2.374063110E-1,9.745035095E0,9.748731621E0
4.050922292E0,1.766326904E-1,2.965333557E-1,9.791588287E0,9.797669740E0
4.060953292E0,2.161505127E-1,3.216810608E-1,9.846074982E0,9.853699422E0
4.070984292E0,2.392025757E-1,3.110531616E-1,9.927805023E0,9.935556578E0
4.081015292E0,2.526745605E-1,2.671943665E-1,9.971364441E0,9.978143418E0
4.091047292E0,2.139051819E-1,2.170486450E-1,1.001237915E1,1.001701561E1
4.101078292E0,1.573228455E-1,1.812730408E-1,1.002106110E1,1.002393515E1
4.111109292E0,1.152603149E-1,1.395098877E-1,9.984686737E0,9.986326511E0
4.121140292E0,9.774673462E-2,1.233435059E-1,9.918524323E0,9.919772819E0
4.131171292E0,9.595046997E-2,1.285826111E-1,9.845625916E0,9.846933007E0
4.141203292E0,1.130149841E-1,1.432521057E-1,9.782307587E0,9.784009162E0
4.151234292E0,1.561253357E-1,1.478924561E-1,9.741741943E0,9.744115321E0
4.161265292E0,1.734892273E-1,1.603166199E-1,9.720935211E0,9.723804878E0
4.171296292E0,1.859133911E-1,1.549278259E-1,9.759105835E0,9.762105978E0
4.181327292E0,1.924996948E-1,1.612147522E-1,9.813592529E0,9.816804198E0
4.191359292E0,1.880090332E-1,1.540296936E-1,9.847571869E0,9.850570758E0
4.201390292E0,1.730401611E-1,1.544787598E-1,9.876312103E0,9.879035750E0
4.211421292E0,1.725910950E-1,1.411564636E-1,9.906998291E0,9.909506949E0
4.221452292E0,1.678010559E-1,1.434017944E-1,9.905800781E0,9.908259705E0
4.231483292E0,1.345701599E-1,1.591191101E-1,9.880054321E0,9.882251839E0
4.241515292E0,1.293310547E-1,1.703457642E-1,9.839189301E0,9.841513618E0
4.251546292E0,1.046324158E-1,1.929487610E-1,9.831555176E0,9.834005000E0
4.261577292E0,1.288819885E-1,1.878593445E-1,9.837093658E0,9.839731366E0
4.271608292E0,1.797761536E-1,1.811233521E-1,9.873018951E0,9.876316538E0
4.281639292E0,2.082170105E-1,1.655557251E-1,9.912985840E0,9.916554406E0
4.291671292E0,2.252815247E-1,1.576222229E-1,9.865983582E0,9.869814008E0
4.301702292E0,2.103126526E-1,1.341210938E-1,9.841584320E0,9.844744883E0
4.311733292E0,1.779798889E-1,1.489402771E-1,9.872420197E0,9.875147623E0
4.321764292E0,1.396595764E-1,1.417552185E-1,9.871971130E0,9.873976572E0
4.331795292E0,1.019380188E-1,1.592687988E-1,9.877060547E0,9.878870530E0
4.341827292E0,1.260379028E-1,1.902543640E-1,9.864337006E0,9.866976580E0
4.351858292E0,1.694476318E-1,2.104623413E-1,9.854906616E0,9.858610009E0
4.361889292E0,1.965412903E-1,2.438429260E-1,9.864935760E0,9.869906049E0
4.371920292E0,1.740879822E-1,2.447410583E-1,9.874366150E0,9.878932719E0
4.381952292E0,1.534309387E-1,2.330653381E-1,9.895921326E0,9.899854514E0
4.391983292E0,1.432521057E-1,2.125579834E-1,9.883946228E0,9.887269345E0
4.402014292E0,1.199006653E-1,1.800755310E-1,9.861492920E0,9.863865671E0
4.412045292E0,1.193019104E-1,1.621128845E-1,9.847571869E0,9.849628686E0
4.422076292E0,1.309776306E-1,1.314266968E-1,9.814939728E0,9.816693434E0
4.432108292E0,1.206491089E-1,1.213975525E-1,9.821825409E0,9.823316545E0
4.442139292E0,1.308279419E-1,9.804611206E-2,9.837842102E0,9.839200487E0
4.452170292E0,1.437011719E-1,9.580078125E-2,9.848170624E0,9.849684891E0
4.462201292E0,1.558259583E-1,9.624984741E-2,9.846673737E0,9.848376995E0
4.472232292E0,1.592687988E-1,9.639953613E-2,9.832602997E0,9.834365313E0
4.482264292E0,1.606159973E-1,1.154100037E-1,9.847122803E0,9.849108816E0
4.492295292E0,1.538800049E-1,1.366658020E-1,9.845176849E0,9.847327749E0
4.502326292E0,1.435514832E-1,1.375639343E-1,9.846973114E0,9.848980169E0
4.512357292E0,1.270857239E-1,1.498384094E-1,9.850865021E0,9.852824163E0
4.522388292E0,1.173559570E-1,1.493893433E-1,9.861043854E0,9.862873592E0
4.532420292E0,1.113684082E-1,1.486408997E-1,9.868827667E0,9.870575290E0
4.542451292E0,9.624984741E-2,1.634600830E-1,9.858349457E0,9.860174301E0
4.552482292E0,1.068777466E-1,1.745370483E-1,9.870923309E0,9.873044769E0
4.562513292E0,1.236428833E-1,1.845661926E-1,9.855355682E0,9.857859193E0
4.572544292E0,1.395098877E-1,1.776805115E-1,9.836195526E0,9.838789346E0
4.582576292E0,1.401086426E-1,1.745370483E-1,9.838740234E0,9.841285638E0
4.592607292E0,1.413061523E-1,1.769320679E-1,9.837243347E0,9.839849036E0
4.602638292E0,1.146615601E-1,1.706451416E-1,9.859247589E0,9.861390879E0
4.612669292E0,1.166075134E-1,1.775308228E-1,9.879754944E0,9.882037859E0
4.622700292E0,1.181044006E-1,1.803749084E-1,9.877060547E0,9.879413384E0
4.632732292E0,1.414558411E-1,1.862127686E-1,9.849218445E0,9.851994160E0
4.642763292E0,1.450483704E-1,1.746867371E-1,9.818083191E0,9.820708326E0
4.652794292E0,1.395098877E-1,1.649569702E-1,9.817634125E0,9.820010877E0
4.662825292E0,1.444496155E-1,1.537303162E-1,9.836644592E0,9.838906216E0
4.672856292E0,1.442999268E-1,1.543290710E-1,9.873617706E0,9.875878014E0
4.682888292E0,1.586700439E-1,1.459465027E-1,9.876461792E0,9.878814407E0
4.692919292E0,1.378633118E-1,1.695973206E-1,9.844428406E0,9.846854329E0
4.702950292E0,1.193019104E-1,1.700463867E-1,9.803413696E0,9.805614148E0
4.712981292E0,1.157093811E-1,1.607656860E-1,9.844129028E0,9.846121602E0
4.723011958E0,1.246907043E-1,1.525328064E-1,9.920320587E0,9.922276683E0
4.733043958E0,1.622625732E-1,1.383123779E-1,1.003168900E1,1.003395453E1
4.743074958E0,1.926493835E-1,1.233435059E-1,9.939630432E0,9.942262345E0
4.753105958E0,1.454974365E-1,1.118174744E-1,9.749974823E0,9.751701477E0
4.763136958E0,6.945556641E-2,1.014889526E-1,9.694889374E0,9.695669345E0
4.773168958E0,4.071533203E-2,8.846603394E-2,9.774523773E0,9.775008899E0
4.783199958E0,6.331832886E-2,8.577163696E-2,9.903705139E0,9.904278947E0
4.793230958E0,1.143621826E-1,8.023315430E-2,9.922565918E0,9.923549288E0
4.803261958E0,1.523831177E-1,1.215472412E-1,9.870174866E0,9.872099383E0
4.813292958E0,1.709445190E-1,1.992356873E-1,9.785900116E0,9.789420717E0
4.823324958E0,1.672023010E-1,2.442919922E-1,9.769733734E0,9.774217740E0
4.833355958E0,1.541793823E-1,2.853067017E-1,9.804760895E0,9.810122701E0
4.843386958E0,1.428030396E-1,2.894979858E-1,9.872270508E0,9.877546597E0
4.853417958E0,1.306782532E-1,2.758763123E-1,9.912387085E0,9.917086380E0
4.863448958E0,1.579216003E-1,2.589614868E-1,9.919123077E0,9.923759515E0
4.873480958E0,1.678010559E-1,2.463876343E-1,9.939031677E0,9.943501131E0
4.883511958E0,1.348695374E-1,2.077679443E-1,9.949060822E0,9.952143917E0
4.893542958E0,1.053808594E-1,1.484912109E-1,9.948611755E0,9.950277917E0
4.903573958E0,8.232879639E-2,1.160087585E-1,9.916278992E0,9.917299285E0
4.913604958E0,7.409591675E-2,1.002914429E-1,9.873767395E0,9.874554732E0
4.923636958E0,8.202941895E-2,1.097218323E-1,9.811796265E0,9.812752603E0
4.933667958E0,1.050814819E-1,1.121168518E-1,9.806257782E0,9.807461649E0
4.943698958E0,1.330732727E-1,1.260379028E-1,9.814191284E0,9.815902639E0
4.953729958E0,1.374142456E-1,1.372645569E-1,9.830207977E0,9.832126581E0
4.963760958E0,1.516346741E-1,1.210981750E-1,9.842632141E0,9.844544952E0
4.973792958E0,1.597178650E-1,1.483415222E-1,9.860594788E0,9.863003831E0
4.983823958E0,1.517843628E-1,1.510359192E-1,9.850715332E0,9.853042317E0
4.993854958E0,1.315763855E-1,1.505868530E-1,9.854158173E0,9.856186993E0
5.003885958E0,1.300794983E-1,1.722917175E-1,9.851314087E0,9.853679229E0
5.013916958E0,9.595046997E-2,1.719923401E-1,9.809850311E0,9.811827097E0
5.023948958E0,7.289840698E-2,1.796264648E-1,9.782756653E0,9.784677183E0
5.033979958E0,4.969665527E-2,1.835183716E-1,9.805808716E0,9.807651774E0
5.044010958E0,6.885681152E-2,1.823208618E-1,9.832902374E0,9.834833565E0
5.054041958E0,1.206491089E-1,1.681004333E-1,9.885592804E0,9.887758040E0
5.064072958E0,1.719923401E-1,1.676513672E-1,9.930499420E0,9.933403600E0
5.074104958E0,1.875599670E-1,1.651066589E-1,9.898316345E0,9.901469862E0
5.084135958E0,2.010319519E-1,1.654060364E-1,9.880054321E0,9.883483515E0
5.094166958E0,1.809736633E-1,1.791773987E-1,9.875563660E0,9.878846775E0
5.104197958E0,1.570234680E-1,1.763333130E-1,9.886041870E0,9.888861090E0
5.114228958E0,1.249900818E-1,1.797761536E-1,9.880353699E0,9.882779528E0
5.124260958E0,1.011895752E-1,1.963916016E-1,9.858199768E0,9.860675010E0
5.134291958E0,9.580078125E-2,2.267784119E-1,9.838590546E0,9.841670090E0
5.144322958E0,9.879455566E-2,2.285746765E-1,9.839039612E0,9.842190164E0
5.154353958E0,9.714797974E-2,2.303709412E-1,9.855655060E0,9.858825749E0
5.164384958E0,1.124162292E-1,2.207908630E-1,9.898915100E0,9.902015258E0
5.174416958E0,1.284329224E-1,1.841171265E-1,9.896370392E0,9.898916156E0
5.184447958E0,1.384620667E-1,1.791773987E-1,9.896969147E0,9.899559312E0
5.194478958E0,1.326242065E-1,1.540296936E-1,9.869725800E0,9.871818560E0
5.204509958E0,1.339714050E-1,1.321751404E-1,9.823471985E0,9.825274573E0
5.214540958E0,1.178050232E-1,1.209484863E-1,9.809101868E0,9.810554827E0
5.224572958E0,1.222956848E-1,1.170565796E-1,9.806706848E0,9.808167907E0
5.234603958E0,1.070274353E-1,1.191522217E-1,9.827513580E0,9.828818611E0
5.244634958E0,1.227447510E-1,1.155596924E-1,9.835596771E0,9.837041433E0
5.254665958E0,1.139131165E-1,1.202000427E-1,9.830507355E0,9.831902110E0
5.264696958E0,1.237925720E-1,1.133143616E-1,9.853709106E0,9.855138147E0
5.274728958E0,1.224453735E-1,1.249900818E-1,9.847272491E0,9.848826880E0
5.284759958E0,1.061293030E-1,1.284329224E-1,9.861043854E0,9.862451233E0
5.294790958E0,1.064286804E-1,1.445993042E-1,9.870773621E0,9.872406388E0
5.304821958E0,1.050814819E-1,1.661544800E-1,9.859696655E0,9.861656431E0
5.314852958E0,1.001417542E-1,1.875599670E-1,9.866732025E0,9.869022645E0
5.324884958E0,1.133143616E-1,1.938468933E-1,9.849368134E0,9.851927192E0
5.334915958E0,8.547225952E-2,2.127076721E-1,9.843081207E0,9.845750236E0
5.344946958E0,9.744735718E-2,2.221380615E-1,9.863588562E0,9.866570865E0
5.354977958E0,1.062789917E-1,2.142045593E-1,9.868677979E0,9.871574538E0
5.365008958E0,1.014889526E-1,2.088157654E-1,9.865684204E0,9.868415721E0
5.375040958E0,1.101708984E-1,1.872605896E-1,9.866133270E0,9.868525212E0
5.385071958E0,1.020877075E-1,1.814227295E-1,9.865534515E0,9.867730609E0
5.395102958E0,1.004411316E-1,1.675016785E-1,9.890382843E0,9.892311055E0
5.405133958E0,1.302291870E-1,1.663041687E-1,9.892478485E0,9.894733311E0
5.415165958E0,1.381626892E-1,1.660047913E-1,9.898166656E0,9.900522697E0
5.425196958E0,1.383123779E-1,1.636097717E-1,9.880802765E0,9.883125100E0
5.435227958E0,1.107696533E-1,1.595681763E-1,9.842632141E0,9.844548714E0
5.445258958E0,9.340576172E-2,1.672023010E-1,9.850865021E0,9.852726674E0
5.455289958E0,8.637039185E-2,1.592687988E-1,9.858199768E0,9.859864556E0
5.465321958E0,9.475296021E-2,1.703457642E-1,9.869276733E0,9.871201499E0
5.475352958E0,1.133143616E-1,1.948947144E-1,9.838291168E0,9.840873803E0
5.485383958E0,1.194515991E-1,1.945953369E-1,9.811047821E0,9.813704468E0
5.495414958E0,1.196012878E-1,2.055226135E-1,9.781259766E0,9.784149765E0
5.505445958E0,1.038839722E-1,1.806742859E-1,9.810299377E0,9.812512877E0
5.515477958E0,9.280700684E-2,1.695973206E-1,9.861043854E0,9.862938826E0
5.525508958E0,9.041198730E-2,1.490899658E-1,9.924212494E0,9.925744091E0
5.535539958E0,9.101074219E-2,1.457968140E-1,9.909842377E0,9.911332685E0
5.545570958E0,8.562194824E-2,1.442999268E-1,9.839488678E0,9.840919217E0
5.555601958E0,8.367599487E-2,1.445993042E-1,9.800719299E0,9.802143103E0
5.565633958E0,8.457412720E-2,1.437011719E-1,9.888736267E0,9.890141949E0
5.575664958E0,1.342707825E-1,1.618135071E-1,1.000055374E1,1.000276399E1
5.585695958E0,1.853146362E-1,1.719923401E-1,9.992171173E0,9.995369309E0
5.595726958E0,1.719923401E-1,1.728904724E-1,9.821526031E0,9.824553225E0
5.605757958E0,8.666976929E-2,1.643582153E-1,9.665400696E0,9.667186555E0
5.615789958E0,3.667373657E-2,1.460961914E-1,9.697733459E0,9.698903201E0
5.625820958E0,4.625381470E-2,1.360670471E-1,9.847871246E0,9.848919826E0
5.635851958E0,9.086105347E-2,1.056802368E-1,9.970166931E0,9.971140992E0
5.645882958E0,1.210981750E-1,1.194515991E-1,9.950258331E0,9.951712130E0
5.655913958E0,1.330732727E-1,1.453477478E-1,9.866732025E0,9.868699779E0
5.665945958E0,1.450483704E-1,1.913021851E-1,9.800569611E0,9.803509588E0
5.675976958E0,1.363664246E-1,2.423460388E-1,9.789193268E0,9.793142102E0
5.686007958E0,1.083746338E-1,2.694396973E-1,9.822873230E0,9.827165477E0
5.696038958E0,8.292755127E-2,2.736309814E-1,9.875863037E0,9.880001094E0
5.706069958E0,9.026229858E-2,2.894979858E-1,9.883048096E0,9.887699228E0
5.716102333E0,1.209484863E-1,2.857557678E-1,9.905052338E0,9.909911539E0
5.726133333E0,1.363664246E-1,2.624043274E-1,9.929152222E0,9.933555037E0
5.736164333E0,1.227447510E-1,2.439926147E-1,9.943522339E0,9.947272751E0
5.746195333E0,1.028361511E-1,1.962419128E-1,9.935888214E0,9.938358052E0
5.756226333E0,8.487350464E-2,1.477427673E-1,9.912237396E0,9.913701712E0
5.766258333E0,7.409591675E-2,1.224453735E-1,9.854906616E0,9.855945794E0
5.776289333E0,6.825805664E-2,1.119671631E-1,9.806557159E0,9.807433871E0
5.786320333E0,6.870712280E-2,9.774673462E-2,9.783654785E0,9.784384296E0
5.796351333E0,7.020401001E-2,1.098715210E-1,9.797875214E0,9.798742728E0
5.806382333E0,1.122665405E-1,1.154100037E-1,9.811197510E0,9.812518526E0
5.816414333E0,1.375639343E-1,1.193019104E-1,9.821675720E0,9.823363514E0
5.826445333E0,1.365161133E-1,1.451980591E-1,9.846524048E0,9.848540752E0
5.836476333E0,1.447489929E-1,1.568737793E-1,9.857451324E0,9.859762080E0
5.846507333E0,1.318757629E-1,1.874102783E-1,9.886790314E0,9.889445714E0
5.856538333E0,1.131646729E-1,1.778302002E-1,9.901010742E0,9.903254189E0
5.866570333E0,6.631210327E-2,1.935475159E-1,9.843979340E0,9.846105178E0
5.876601333E0,3.053649902E-2,2.101629639E-1,9.818083191E0,9.820379753E0
5.886632333E0,1.451980591E-2,2.207908630E-1,9.796677704E0,9.799176162E0
5.896663333E0,3.143463135E-2,2.279759216E-1,9.821226654E0,9.823922544E0
5.906694333E0,9.550140381E-2,2.209405518E-1,9.863139496E0,9.866076016E0
5.916726333E0,1.468446350E-1,2.110610962E-1,9.881251831E0,9.884596496E0
5.926757333E0,1.413061523E-1,1.992356873E-1,9.884694672E0,9.887712124E0
5.936788333E0,1.514849854E-1,1.896556091E-1,9.858199768E0,9.861187536E0
5.946819333E0,1.440005493E-1,1.769320679E-1,9.889784088E0,9.892414792E0
5.956850333E0,1.103205872E-1,1.963916016E-1,9.898915100E0,9.901477690E0
5.966882333E0,9.849517822E-2,1.884580994E-1,9.905651093E0,9.907933252E0
5.976913333E0,8.173004150E-2,2.164498901E-1,9.880952454E0,9.883660847E0
5.986944333E0,8.397537231E-2,2.231858826E-1,9.863289185E0,9.866171362E0
5.996975333E0,1.010398865E-1,2.276765442E-1,9.850865021E0,9.854013767E0
6.007006333E0,9.580078125E-2,2.311193848E-1,9.867630157E0,9.870801329E0
6.017038333E0,9.774673462E-2,2.278262329E-1,9.867181091E0,9.870294925E0
6.027069333E0,9.849517822E-2,2.179467773E-1,9.882149963E0,9.885043753E0
6.037100333E0,9.669891357E-2,1.942959595E-1,9.859397278E0,9.861785654E0
6.047131333E0,9.729766846E-2,1.752854919E-1,9.861043854E0,9.863081553E0
6.057162333E0,7.963439941E-2,1.571731567E-1,9.839488678E0,9.841066125E0
6.067194333E0,7.873626709E-2,1.369651794E-1,9.843230896E0,9.844498633E0
6.077225333E0,8.023315430E-2,1.182540894E-1,9.851463776E0,9.852500186E0
6.087256333E0,7.619155884E-2,1.257385254E-1,9.837393036E0,9.838491606E0
6.097287333E0,9.280700684E-2,1.311273193E-1,9.842183075E0,9.843494054E0
6.107318333E0,1.020877075E-1,1.416055298E-1,9.824519806E0,9.826070600E0
6.117350333E0,1.040336609E-1,1.460961914E-1,9.822424164E0,9.824061459E0
6.127381333E0,9.654922485E-2,1.600172424E-1,9.864636383E0,9.866406552E0
6.137412333E0,8.816665649E-2,1.657054138E-1,9.866881714E0,9.868666901E0
6.147443333E0,7.544311523E-2,1.764830017E-1,9.864935760E0,9.866802698E0
6.157474333E0,8.637039185E-2,1.965412903E-1,9.862690430E0,9.865026652E0
6.167506333E0,6.840774536E-2,1.914518738E-1,9.874216461E0,9.876309238E0
6.177537333E0,6.227050781E-2,2.050735474E-1,9.852062531E0,9.854393380E0
6.187568333E0,6.556365967E-2,2.151026917E-1,9.877808990E0,9.880368324E0
6.197599333E0,5.433700562E-2,2.239343262E-1,9.863139496E0,9.865830923E0
6.207630333E0,4.355941772E-2,2.163002014E-1,9.845027161E0,9.847499327E0
6.217662333E0,5.613327026E-2,2.113604736E-1,9.873318329E0,9.875739922E0
6.227693333E0,6.780899048E-2,2.213896179E-1,9.855205994E0,9.857925573E0
6.237724333E0,7.903564453E-2,1.959425354E-1,9.854607239E0,9.856871915E0
6.247755333E0,1.047821045E-1,1.936972046E-1,9.874216461E0,9.876671940E0
6.257786333E0,1.082249451E-1,1.907034302E-1,9.865983582E0,9.868419958E0
6.267818333E0,1.064286804E-1,1.848655701E-1,9.874366150E0,9.876669945E0
6.277849333E0,1.294807434E-1,1.824705505E-1,9.894424438E0,9.896953861E0
6.287880333E0,1.213975525E-1,1.761836243E-1,9.889634399E0,9.891948574E0
6.297911333E0,1.179547119E-1,1.751358032E-1,9.869426422E0,9.871684951E0
6.307942333E0,7.858657837E-2,1.661544800E-1,9.838889923E0,9.840606591E0
6.317974333E0,5.134323120E-2,1.698966980E-1,9.842183075E0,9.843783251E0
6.328005333E0,6.631210327E-2,1.664538574E-1,9.852511597E0,9.854140700E0
6.338036333E0,8.577163696E-2,1.854643250E-1,9.869426422E0,9.871541505E0
6.348067333E0,9.430389404E-2,2.028282166E-1,9.864486694E0,9.867022360E0
6.358099333E0,1.062789917E-1,2.221380615E-1,9.809550934E0,9.812641340E0
6.368130333E0,9.924362183E-2,2.489323425E-1,9.770781555E0,9.774455934E0
6.378161333E0,7.993377686E-2,2.243833923E-1,9.784253540E0,9.787152530E0
6.388192333E0,7.933502197E-2,2.082170105E-1,9.830657043E0,9.833181900E0
6.398223333E0,7.424560547E-2,1.913021851E-1,9.896370392E0,9.898497657E0
6.408255333E0,5.837860107E-2,1.796264648E-1,9.901759186E0,9.903560405E0
6.418286333E0,6.765930176E-2,1.645079041E-1,9.801767120E0,9.803381014E0
6.428317333E0,4.700225830E-2,1.654060364E-1,9.808353424E0,9.809860614E0
6.438348333E0,8.307723999E-2,1.806742859E-1,9.944270782E0,9.946258916E0
6.448379333E0,1.431024170E-1,2.061213684E-1,1.007255402E1,1.007567907E1
6.458410333E0,1.437011719E-1,2.016307068E-1,9.982591095E0,9.985661217E0
6.468442333E0,9.460327148E-2,2.022294617E-1,9.766889648E0,9.769441127E0
6.478473333E0,4.670288086E-2,2.086660767E-1,9.655221863E0,9.657589343E0
6.488504333E0,2.409988403E-2,2.071691895E-1,9.713151398E0,9.715390365E0
6.498535333E0,3.936813354E-2,1.856140137E-1,9.886191559E0,9.888012235E0
6.508567333E0,9.265731812E-2,1.574725342E-1,9.985884247E0,9.987555615E0
6.518598333E0,1.245410156E-1,1.505868530E-1,9.949958954E0,9.951877715E0
6.528629333E0,1.380130005E-1,1.568737793E-1,9.870623932E0,9.872835144E0
6.538660333E0,1.390608215E-1,2.020797729E-1,9.815538483E0,9.818603254E0
6.548691333E0,1.287322998E-1,2.585124207E-1,9.801617432E0,9.805870943E0
6.558722333E0,8.427474976E-2,2.799179077E-1,9.835746460E0,9.840089669E0
6.568754333E0,7.319778442E-2,3.019221497E-1,9.875563660E0,9.880449003E0
6.578785333E0,7.708969116E-2,3.228785706E-1,9.872270508E0,9.877849886E0
6.588816333E0,9.370513916E-2,3.260220337E-1,9.879305878E0,9.885128003E0
6.598847333E0,1.175056458E-1,3.314108276E-1,9.885742493E0,9.891994002E0
6.608879333E0,1.142124939E-1,3.134481812E-1,9.894424438E0,9.900046930E0
6.618910333E0,1.107696533E-1,2.736309814E-1,9.884245605E0,9.888652841E0
6.628941333E0,7.858657837E-2,2.360591125E-1,9.870474243E0,9.873609347E0
6.638972333E0,7.574249268E-2,1.821711731E-1,9.859996033E0,9.861969632E0
6.649003333E0,5.718109131E-2,1.507365417E-1,9.832453308E0,9.833774923E0
6.659035333E0,5.373825073E-2,1.399589539E-1,9.815837860E0,9.816982693E0
6.669066333E0,6.885681152E-2,1.233435059E-1,9.805509338E0,9.806526820E0
6.679097333E0,7.484436035E-2,1.269360352E-1,9.818532257E0,9.819637983E0
6.689128333E0,9.610015869E-2,1.550775146E-1,9.834249573E0,9.835941690E0
6.699159333E0,1.164578247E-1,1.698966980E-1,9.847721558E0,9.849875491E0
6.709191333E0,1.101708984E-1,1.757345581E-1,9.856852570E0,9.859034580E0
6.719221917E0,1.121168518E-1,1.993853760E-1,9.869875488E0,9.872525861E0
6.729252917E0,9.145980835E-2,2.263293457E-1,9.873617706E0,9.876634876E0
6.739283917E0,9.430389404E-2,2.532733154E-1,9.813742218E0,9.817462855E0
6.749314917E0,5.703140259E-2,2.710862732E-1,9.783954163E0,9.787875122E0
6.759345917E0,1.826202393E-2,2.749781799E-1,9.793534241E0,9.797410853E0
6.769377917E0,4.176315308E-2,2.781216431E-1,9.856104126E0,9.860115839E0
6.779408917E0,1.023870850E-1,2.820135498E-1,9.895921326E0,9.900468355E0
6.789439917E0,1.305285645E-1,2.607577515E-1,9.899064789E0,9.903358824E0
6.799470917E0,1.323248291E-1,2.486329651E-1,9.880952454E0,9.884965837E0
6.809502917E0,1.339714050E-1,2.287243652E-1,9.866133270E0,9.869693454E0
6.819533917E0,1.305285645E-1,2.230361938E-1,9.882149963E0,9.885528349E0
6.829564917E0,1.113684082E-1,2.171983337E-1,9.889784088E0,9.892795730E0
6.839595917E0,8.547225952E-2,2.164498901E-1,9.908195801E0,9.910928316E0
6.849626917E0,8.487350464E-2,2.423460388E-1,9.907597046E0,9.910923990E0
6.859658917E0,8.053253174E-2,2.628533936E-1,9.878407745E0,9.882232388E0
6.869689917E0,9.774673462E-2,2.802172852E-1,9.856403503E0,9.860870457E0
6.879720917E0,1.046324158E-1,2.881507874E-1,9.864037628E0,9.868800188E0
6.889751917E0,1.172062683E-1,2.751278687E-1,9.869875488E0,9.874405036E0
6.899782917E0,1.007405090E-1,2.610571289E-1,9.879156189E0,9.883118257E0
6.909814917E0,9.535171509E-2,2.474354553E-1,9.869875488E0,9.873437011E0
6.919845917E0,1.052311707E-1,2.309696960E-1,9.868677979E0,9.871941331E0
6.929876917E0,8.966354370E-2,2.067201233E-1,9.862391052E0,9.864964776E0
6.939907917E0,8.891510010E-2,1.929487610E-1,9.847422180E0,9.849713636E0
6.949938917E0,9.086105347E-2,1.850152588E-1,9.824070740E0,9.826232863E0
6.959970917E0,8.966354370E-2,1.914518738E-1,9.833351440E0,9.835623718E0
6.970001917E0,9.160949707E-2,1.875599670E-1,9.808353424E0,9.810574292E0
6.980032917E0,8.786727905E-2,1.957928467E-1,9.802515564E0,9.804864450E0
6.990063917E0,8.367599487E-2,1.933978271E-1,9.811496887E0,9.813759502E0
7.000094917E0,8.532257080E-2,2.085163879E-1,9.861043854E0,9.863617233E0
7.010126917E0,1.040336609E-1,2.209405518E-1,9.871222687E0,9.874243012E0
7.020157917E0,1.004411316E-1,2.243833923E-1,9.874665527E0,9.877725224E0
7.030188917E0,1.110690308E-1,2.377056885E-1,9.878108368E0,9.881592243E0
7.040219917E0,8.487350464E-2,2.323168945E-1,9.858648834E0,9.861750934E0
7.050250917E0,7.200027466E-2,2.420466614E-1,9.861492920E0,9.864725705E0
7.060282917E0,6.152206421E-2,2.649490356E-1,9.858499146E0,9.862250674E0
7.070313917E0,5.134323120E-2,2.727328491E-1,9.876761169E0,9.880659418E0
7.080344917E0,5.523513794E-2,2.639012146E-1,9.881102142E0,9.884779933E0
7.090375917E0,4.969665527E-2,2.647993469E-1,9.855804749E0,9.859486584E0
7.100406917E0,6.885681152E-2,2.670446777E-1,9.866133270E0,9.869986820E0
7.110438917E0,7.035369873E-2,2.535726929E-1,9.852661285E0,9.856174875E0
7.120469917E0,9.774673462E-2,2.405497742E-1,9.881551208E0,9.884961958E0
7.130500917E0,1.188528442E-1,2.315684509E-1,9.886041870E0,9.889467822E0
7.140531917E0,1.058299255E-1,2.269281006E-1,9.874066772E0,9.877241060E0
7.150562917E0,1.037342834E-1,2.189945984E-1,9.830507355E0,9.833493494E0
7.160593917E0,8.337661743E-2,2.306703186E-1,9.848470001E0,9.851523832E0
7.170625917E0,8.412506104E-2,2.245330811E-1,9.886790314E0,9.889697409E0
7.180656917E0,9.445358276E-2,2.430944824E-1,9.902507629E0,9.905941336E0
7.190687917E0,1.002914429E-1,2.658471680E-1,9.852062531E0,9.856158947E0
7.200718917E0,1.014889526E-1,2.619552612E-1,9.781409454E0,9.785442835E0
7.210750917E0,8.247848511E-2,2.574645996E-1,9.758357391E0,9.762101705E0
7.220781917E0,7.424560547E-2,2.547702026E-1,9.792785797E0,9.796380655E0
7.230812917E0,5.822891235E-2,2.348616028E-1,9.836794281E0,9.839769932E0
7.240843917E0,7.110214233E-2,2.056723022E-1,9.889335022E0,9.891729060E0
7.250874917E0,6.945556641E-2,2.005828857E-1,9.860894165E0,9.863178560E0
7.260906917E0,6.930587769E-2,2.185455322E-1,9.792785797E0,9.795469316E0
7.270937917E0,8.846603394E-2,2.037263489E-1,9.873168640E0,9.875666543E0
7.280968917E0,1.233435059E-1,2.041754150E-1,1.000190094E1,1.000474506E1
7.290999917E0,1.672023010E-1,2.276765442E-1,1.007749374E1,1.008145195E1
7.301030917E0,1.555265808E-1,2.278262329E-1,9.941277008E0,9.945103411E0
7.311062917E0,8.517288208E-2,2.430944824E-1,9.693841553E0,9.697263191E0
7.321093917E0,1.257385254E-2,2.523751831E-1,9.644444275E0,9.647753972E0
7.331124917E0,1.122665405E-2,2.386038208E-1,9.765093384E0,9.768014466E0
7.341155917E0,6.750961304E-2,2.122586060E-1,9.928403778E0,9.930901915E0
7.351186917E0,9.864486694E-2,1.844165039E-1,9.996212769E0,9.998400371E0
7.361218917E0,1.112187195E-1,1.781295776E-1,9.924062805E0,9.926284416E0
7.371249917E0,1.290316772E-1,2.070195007E-1,9.833052063E0,9.836077426E0
7.381280917E0,1.193019104E-1,2.490820312E-1,9.792037354E0,9.795931315E0
7.391311917E0,9.550140381E-2,2.865042114E-1,9.797875214E0,9.802528443E0
7.401342917E0,7.334747314E-2,2.897973633E-1,9.847122803E0,9.851659244E0
7.411373917E0,5.867797852E-2,3.100053406E-1,9.883048096E0,9.888083034E0
7.421405917E0,7.679031372E-2,3.218307495E-1,9.890831909E0,9.896364365E0
7.431436917E0,1.068777466E-1,3.405418396E-1,9.895172882E0,9.901607847E0
7.441467917E0,1.140628052E-1,3.273692322E-1,9.899513855E0,9.905582038E0
7.451498917E0,1.008901978E-1,3.122506714E-1,9.907147980E0,9.912580915E0
7.461529917E0,7.664062500E-2,2.697390747E-1,9.906998291E0,9.910966052E0
7.471561917E0,6.975494385E-2,2.119592285E-1,9.891580353E0,9.894096944E0
7.481592917E0,5.074447632E-2,1.865121460E-1,9.862241364E0,9.864135365E0
7.491623917E0,5.643264771E-2,1.842668152E-1,9.838740234E0,9.840627434E0
7.501654917E0,4.131408691E-2,1.651066589E-1,9.802066498E0,9.803543986E0
7.511685917E0,4.999603271E-2,1.716929626E-1,9.814490662E0,9.816119652E0
7.521717917E0,7.200027466E-2,1.956431580E-1,9.824070740E0,9.826282419E0
7.531748917E0,8.906478882E-2,1.776805115E-1,9.839638367E0,9.841645497E0
7.541779917E0,1.118174744E-1,1.960922241E-1,9.860295410E0,9.862878935E0
7.551810917E0,1.224453735E-1,2.171983337E-1,9.862091675E0,9.865243037E0
7.561841917E0,1.170565796E-1,2.387535095E-1,9.881700897E0,9.885277847E0
7.571873917E0,1.092727661E-1,2.582130432E-1,9.848170624E0,9.852161141E0
7.581904917E0,7.185058594E-2,2.659968567E-1,9.788744202E0,9.792621196E0
7.591935917E0,9.729766846E-3,2.835104370E-1,9.760453033E0,9.764574556E0
7.601966917E0,1.002914429E-2,2.896476746E-1,9.793085175E0,9.797372790E0
7.611997917E0,3.832031250E-2,2.880010986E-1,9.858948212E0,9.863228321E0
7.622029917E0,1.053808594E-1,2.656974792E-1,9.896220703E0,9.900347695E0
7.632060917E0,1.411564636E-1,2.604583740E-1,9.904004517E0,9.908434244E0
7.642091917E0,1.296304321E-1,2.380050659E-1,9.893526306E0,9.897237657E0
7.652122917E0,1.188528442E-1,2.420466614E-1,9.867779846E0,9.871463502E0
7.662153917E0,1.155596924E-1,2.266287231E-1,9.891131287E0,9.894402092E0
7.672185917E0,9.011260986E-2,2.321672058E-1,9.915231171E0,9.918358285E0
7.682216917E0,5.673202515E-2,2.414479065E-1,9.894873505E0,9.897981475E0
7.692247917E0,7.065307617E-2,2.695893860E-1,9.871971130E0,9.875904227E0
7.702278917E0,6.975494385E-2,2.893482971E-1,9.843679962E0,9.848178684E0
7.712309917E0,8.367599487E-2,2.918930054E-1,9.848919067E0,9.853598835E0
7.722341917E0,9.041198730E-2,2.764750671E-1,9.857301636E0,9.861592586E0
7.732372917E0,7.963439941E-2,2.544708252E-1,9.880952454E0,9.884549480E0
7.742403917E0,7.319778442E-2,2.354603577E-1,9.880802765E0,9.883878934E0
7.752434917E0,8.771759033E-2,2.182461548E-1,9.870923309E0,9.873725373E0
7.762465917E0,8.652008057E-2,2.002835083E-1,9.852212219E0,9.854627584E0
7.772497917E0,8.831634521E-2,1.818717957E-1,9.830956421E0,9.833035202E0
7.782528917E0,8.427474976E-2,1.832189941E-1,9.822573853E0,9.824643939E0
7.792559917E0,7.948471069E-2,1.998344421E-1,9.837692413E0,9.840042868E0
7.802590917E0,7.888595581E-2,1.960922241E-1,9.816735992E0,9.819011187E0
7.812621917E0,7.634124756E-2,2.098635864E-1,9.824819183E0,9.827356852E0
7.822653917E0,6.825805664E-2,2.041754150E-1,9.830956421E0,9.833313323E0
7.832684917E0,6.706054688E-2,2.139051819E-1,9.822723541E0,9.825281182E0
7.842715917E0,7.978408813E-2,2.210902405E-1,9.856104126E0,9.858906376E0
7.852746917E0,6.975494385E-2,2.207908630E-1,9.887838135E0,9.890548890E0
7.862777917E0,6.526428223E-2,2.408491516E-1,9.892179108E0,9.895325929E0
7.872809917E0,6.092330933E-2,2.486329651E-1,9.879006500E0,9.882322573E0
7.882840917E0,6.047424316E-2,2.552192688E-1,9.874515839E0,9.877998636E0
7.892871917E0,4.505630493E-2,2.450404358E-1,9.852361908E0,9.855511659E0
7.902902917E0,3.996688843E-2,2.375559998E-1,9.856553192E0,9.859496490E0
7.912933917E0,4.251159668E-2,2.498304749E-1,9.881551208E0,9.884800291E0
7.922965917E0,3.787124634E-2,2.411485291E-1,9.865085449E0,9.868105075E0
7.932996917E0,3.861968994E-2,2.525248718E-1,9.851613464E0,9.854925070E0
7.943027917E0,6.032455444E-2,2.402503967E-1,9.835447083E0,9.838565882E0
7.953058917E0,7.170089722E-2,2.418969727E-1,9.837842102E0,9.841076790E0
7.963089917E0,8.666976929E-2,2.353106689E-1,9.912686462E0,9.915857787E0
7.973121917E0,1.001417542E-1,2.402503967E-1,9.922266541E0,9.925679923E0
7.983152917E0,1.059796143E-1,2.441423035E-1,9.861492920E0,9.865083870E0
7.993183917E0,8.472381592E-2,2.592608643E-1,9.816286926E0,9.820075526E0
8.003214917E0,6.825805664E-2,2.598596191E-1,9.790091400E0,9.793777402E0
8.013245917E0,4.565505981E-2,2.396516418E-1,9.815089417E0,9.818120877E0
8.023277917E0,5.298980713E-2,2.097138977E-1,9.858499146E0,9.860871830E0
8.033308917E0,5.658233643E-2,2.058219910E-1,9.883197784E0,9.885502653E0
8.043339917E0,5.852828979E-2,1.799258423E-1,9.825268250E0,9.827089856E0
8.053370917E0,5.254074097E-2,1.811233521E-1,9.792336731E0,9.794152585E0
8.063401917E0,7.020401001E-2,2.013313293E-1,9.854457550E0,9.856763998E0
8.073433917E0,1.137634277E-1,2.101629639E-1,1.001312759E1,1.001597897E1
8.083464917E0,1.549278259E-1,2.053729248E-1,1.006836273E1,1.007164876E1
8.093495917E0,1.546284485E-1,2.070195007E-1,9.873018951E0,9.876399660E0
8.103526917E0,5.149291992E-2,2.107617188E-1,9.706864471E0,9.709288846E0
8.113557917E0,-2.335144043E-2,1.974394226E-1,9.718540192E0,9.720573598E0
8.123589917E0,-4.041595459E-3,1.996847534E-1,9.815239105E0,9.817270956E0
8.133620917E0,2.185455322E-2,1.901046753E-1,9.909093933E0,9.910941428E0
8.143651917E0,8.831634521E-2,1.797761536E-1,9.914482727E0,9.916505785E0
8.153682917E0,1.185534668E-1,2.191442871E-1,9.833351440E0,9.836507495E0
8.163713917E0,1.308279419E-1,2.426454163E-1,9.771679688E0,9.775567332E0
8.173745917E0,1.115180969E-1,2.779719543E-1,9.772428131E0,9.777016737E0
8.183776917E0,6.825805664E-2,2.977308655E-1,9.826316071E0,9.831062524E0
8.193807917E0,3.188369751E-2,3.065625000E-1,9.903555450E0,9.908350402E0
8.203838917E0,3.203338623E-2,3.001258850E-1,9.947114868E0,9.951693117E0
8.213869917E0,4.370910645E-2,2.920426941E-1,9.932295685E0,9.936684406E0
8.223901917E0,7.035369873E-2,2.761756897E-1,9.922865295E0,9.926957153E0
8.233932917E0,7.649093628E-2,2.520758057E-1,9.926757202E0,9.930251841E0
8.243963917E0,7.529342651E-2,2.294728088E-1,9.917326813E0,9.920267032E0
8.253994917E0,7.364685059E-2,2.037263489E-1,9.887389069E0,9.889761922E0
8.264025917E0,7.514373779E-2,1.826202393E-1,9.843679962E0,9.845660563E0
8.274057917E0,7.005432129E-2,1.742376709E-1,9.802365875E0,9.804164581E0
8.284088917E0,6.002517700E-2,1.649569702E-1,9.792636108E0,9.794209298E0
8.294119917E0,5.553451538E-2,1.703457642E-1,9.796378326E0,9.798016640E0
8.304150917E0,5.463638306E-2,1.742376709E-1,9.813742218E0,9.815440908E0
8.314181917E0,6.346801758E-2,1.827699280E-1,9.840386810E0,9.842288637E0
8.324213917E0,7.319778442E-2,1.877096558E-1,9.855355682E0,9.857414897E0
8.334244917E0,8.562194824E-2,1.911524963E-1,9.879605255E0,9.881825256E0
8.344275917E0,9.535171509E-2,1.830693054E-1,9.874066772E0,9.876224023E0
8.354306917E0,8.502319336E-2,2.127076721E-1,9.861343231E0,9.864003438E0
8.364337917E0,7.858657837E-2,2.351609802E-1,9.780511322E0,9.783653625E0
8.374369917E0,3.921844482E-2,2.526745605E-1,9.794432373E0,9.797769544E0
8.384400917E0,1.616638184E-2,2.685415649E-1,9.845176849E0,9.848851868E0
8.394431917E0,4.580474854E-2,2.615061951E-1,9.859097900E0,9.862671797E0
8.404462917E0,6.062393188E-2,2.478845215E-1,9.876012726E0,9.879309154E0
8.414493917E0,8.786727905E-2,2.270777893E-1,9.906399536E0,9.909391341E0
8.424525917E0,1.080752563E-1,2.017803955E-1,9.933343506E0,9.935980515E0
8.434556917E0,1.161584473E-1,1.884580994E-1,9.912087708E0,9.914559595E0
8.444587917E0,1.026864624E-1,1.830693054E-1,9.903555450E0,9.905779598E0
8.454618917E0,9.190887451E-2,1.995350647E-1,9.893077240E0,9.895516094E0
8.464649917E0,7.559280396E-2,2.125579834E-1,9.880952454E0,9.883527536E0
8.474681917E0,7.738906860E-2,2.305206299E-1,9.868827667E0,9.871822950E0
8.484712917E0,7.080276489E-2,2.314187622E-1,9.862391052E0,9.865359849E0
8.494743917E0,7.948471069E-2,2.456391907E-1,9.864037628E0,9.867415810E0
8.504774917E0,8.786727905E-2,2.477348328E-1,9.880353699E0,9.883849575E0
8.514805917E0,8.382568359E-2,2.538720703E-1,9.898765411E0,9.902375192E0
8.524837917E0,7.604187012E-2,2.555186462E-1,9.861343231E0,9.864946146E0
8.534868917E0,6.466552734E-2,2.164498901E-1,9.832453308E0,9.835048055E0
8.544899917E0,4.819976807E-2,2.029779053E-1,9.823322296E0,9.825537348E0
8.554930917E0,5.777984619E-2,1.791773987E-1,9.814939728E0,9.816745128E0
8.564961917E0,6.541397095E-2,1.544787598E-1,9.834998016E0,9.836428654E0
8.574993917E0,6.017486572E-2,1.534309387E-1,9.851613464E0,9.852991927E0
8.585024917E0,6.885681152E-2,1.543290710E-1,9.853858795E0,9.855307802E0
8.595055917E0,9.550140381E-2,1.490899658E-1,9.845176849E0,9.846768786E0
8.605086917E0,8.038284302E-2,1.658551025E-1,9.839488678E0,9.841214699E0
8.615117917E0,7.933502197E-2,1.636097717E-1,9.824968872E0,9.826651288E0
8.625148917E0,6.945556641E-2,1.694476318E-1,9.837991791E0,9.839696085E0
8.635180917E0,4.266128540E-2,1.712438965E-1,9.834249573E0,9.835832914E0
8.645211917E0,2.499801636E-2,1.561253357E-1,9.827214203E0,9.828486100E0
8.655242917E0,4.116439819E-2,1.604663086E-1,9.847871246E0,9.849264543E0
8.665273917E0,4.011657715E-2,1.778302002E-1,9.853709106E0,9.855395277E0
8.675305917E0,4.864883423E-2,1.851649475E-1,9.864486694E0,9.866344334E0
8.685336917E0,4.610412598E-2,1.960922241E-1,9.877958679E0,9.880012420E0
8.695367917E0,3.682342529E-2,2.155517578E-1,9.864786072E0,9.867209472E0
8.705398917E0,2.679428101E-2,2.198927307E-1,9.855954437E0,9.858443519E0
8.715429917E0,2.619552612E-2,2.324665833E-1,9.854756927E0,9.857533212E0
8.725460792E0,3.667373657E-2,2.489323425E-1,9.865983582E0,9.869191674E0
8.735492792E0,5.658233643E-2,2.492317200E-1,9.859696655E0,9.863008473E0
8.745523792E0,8.202941895E-2,2.671943665E-1,9.835896149E0,9.839866600E0
8.755554792E0,8.816665649E-2,2.356100464E-1,9.837093658E0,9.840309807E0
8.765585792E0,9.205856323E-2,2.040257263E-1,9.848919067E0,9.851462230E0
8.775616792E0,8.592132568E-2,1.820214844E-1,9.875114594E0,9.877165713E0
8.785648792E0,7.903564453E-2,1.585203552E-1,9.889634399E0,9.891220546E0
8.795679792E0,6.511459351E-2,1.643582153E-1,9.857900391E0,9.859485466E0
8.805710792E0,6.870712280E-2,1.553768921E-1,9.817634125E0,9.819103954E0
8.815741792E0,4.281097412E-2,1.619631958E-1,9.833052063E0,9.834479027E0
8.825772792E0,6.242019653E-2,1.712438965E-1,9.919272766E0,9.920947181E0
8.835804792E0,1.330732727E-1,1.727407837E-1,1.004201752E1,1.004438468E1
8.845835792E0,1.836680603E-1,1.610650635E-1,9.982441406E0,9.985430003E0
8.855866792E0,1.296304321E-1,1.532812500E-1,9.791438599E0,9.793496261E0
8.865897792E0,5.269042969E-2,1.413061523E-1,9.714648285E0,9.715818803E0
8.875928792E0,3.083587646E-2,1.550775146E-1,9.785001984E0,9.786279360E0
8.885960792E0,3.652404785E-2,1.589694214E-1,9.869276733E0,9.870624526E0
8.895991792E0,6.301895142E-2,1.604663086E-1,9.892927551E0,9.894429562E0
8.906022792E0,9.370513916E-2,1.778302002E-1,9.818083191E0,9.820140619E0
8.916053792E0,1.065783691E-1,2.121089172E-1,9.743538208E0,9.746429395E0
8.926084792E0,9.550140381E-2,2.510279846E-1,9.737251282E0,9.740954681E0
8.936116792E0,6.406677246E-2,2.625540161E-1,9.798773346E0,9.802499592E0
8.946147792E0,5.164260864E-2,2.688409424E-1,9.882000275E0,9.885791412E0
8.956178792E0,3.427871704E-2,2.713856506E-1,9.936786346E0,9.940550694E0
8.966209792E0,5.418731689E-2,2.670446777E-1,9.951605530E0,9.955335341E0
8.976240792E0,7.259902954E-2,2.522254944E-1,9.952353973E0,9.955814278E0
8.986272792E0,8.517288208E-2,2.189945984E-1,9.938582611E0,9.941359936E0
8.996303792E0,8.607101440E-2,1.944456482E-1,9.944420471E0,9.946693714E0
9.006334792E0,8.292755127E-2,1.643582153E-1,9.919871521E0,9.921579592E0
9.016365792E0,8.502319336E-2,1.460961914E-1,9.860145721E0,9.861594531E0
9.026396792E0,7.484436035E-2,1.344204712E-1,9.820328522E0,9.821533629E0
9.036428792E0,6.256988525E-2,1.416055298E-1,9.788744202E0,9.789968343E0
9.046459792E0,4.864883423E-2,1.586700439E-1,9.781858521E0,9.783266275E0
9.056490792E0,5.628295898E-2,1.701960754E-1,9.815089417E0,9.816726274E0
9.066521792E0,8.023315430E-2,1.550775146E-1,9.843230896E0,9.844779371E0
9.076552792E0,9.340576172E-2,1.628613281E-1,9.891730042E0,9.893511594E0
9.086584792E0,9.205856323E-2,1.691482544E-1,9.885892181E0,9.887767702E0
9.096615792E0,1.008901978E-1,1.707948303E-1,9.864786072E0,9.866780323E0
9.106646792E0,8.202941895E-2,1.645079041E-1,9.832752686E0,9.834470858E0
9.116677792E0,6.197113037E-2,1.941462708E-1,9.791887665E0,9.794008231E0
9.126708792E0,4.505630493E-2,2.306703186E-1,9.783056030E0,9.785878814E0
9.136740792E0,4.326004028E-2,2.339634705E-1,9.820178833E0,9.823060758E0
9.146771792E0,7.873626709E-2,2.272274780E-1,9.849218445E0,9.852153861E0
9.156802792E0,1.131646729E-1,2.092648315E-1,9.862989807E0,9.865858602E0
9.166833792E0,1.190025330E-1,1.936972046E-1,9.864935760E0,9.867554802E0
9.176864792E0,1.303788757E-1,1.841171265E-1,9.891730042E0,9.894302450E0
9.186896792E0,1.234931946E-1,1.790277100E-1,9.934690704E0,9.937071041E0
9.196927792E0,1.167572021E-1,1.927990723E-1,9.940229187E0,9.942784319E0
9.206958792E0,1.143621826E-1,2.180964661E-1,9.915530548E0,9.918588147E0
9.216989792E0,1.091230774E-1,2.363584900E-1,9.900861053E0,9.904283052E0
9.227020792E0,9.924362183E-2,2.312690735E-1,9.875114594E0,9.878320855E0
9.237052792E0,9.684860229E-2,2.386038208E-1,9.850565643E0,9.853930938E0
9.247083792E0,8.756790161E-2,2.448907471E-1,9.883197784E0,9.886619142E0
9.257114792E0,8.786727905E-2,2.296224976E-1,9.893675995E0,9.896730361E0
9.267145792E0,9.265731812E-2,2.107617188E-1,9.880054321E0,9.882736426E0
9.277176792E0,7.843688965E-2,2.040257263E-1,9.856852570E0,9.859275908E0
9.287208792E0,5.972579956E-2,1.944456482E-1,9.812844086E0,9.814952131E0
9.297239792E0,7.349716187E-2,1.739382935E-1,9.790390778E0,9.792211596E0
9.307270792E0,7.424560547E-2,1.547781372E-1,9.802365875E0,9.803868901E0
9.317301792E0,9.041198730E-2,1.489402771E-1,9.824370117E0,9.825915007E0
9.327332792E0,9.116043091E-2,1.240919495E-1,9.833800507E0,9.835005920E0
9.337364792E0,1.028361511E-1,1.251397705E-1,9.860295410E0,9.861625668E0
9.347395792E0,1.251397705E-1,1.404080200E-1,9.853409729E0,9.855204598E0
9.357426792E0,1.118174744E-1,1.353186035E-1,9.823471985E0,9.825040260E0
9.367457792E0,9.265731812E-2,1.413061523E-1,9.825717316E0,9.827170171E0
9.377488792E0,7.858657837E-2,1.540296936E-1,9.820627899E0,9.822150138E0
9.387519792E0,5.822891235E-2,1.423539734E-1,9.850116577E0,9.851317264E0
9.397551792E0,5.388793945E-2,1.549278259E-1,9.859996033E0,9.861360368E0
9.407582792E0,4.939727783E-2,1.654060364E-1,9.883646851E0,9.885154238E0
9.417613792E0,6.271957397E-2,1.700463867E-1,9.890682220E0,9.892342711E0
9.427644792E0,7.978408813E-2,1.842668152E-1,9.889035645E0,9.891074044E0
9.437676792E0,8.187973022E-2,2.174977112E-1,9.880802765E0,9.883535441E0
9.447707792E0,7.708969116E-2,2.495310974E-1,9.868378601E0,9.871833913E0
9.457738792E0,8.981323242E-2,2.667453003E-1,9.837393036E0,9.841418659E0
9.467769792E0,7.409591675E-2,2.616558838E-1,9.838141479E0,9.841899297E0
9.477800792E0,5.718109131E-2,2.555186462E-1,9.840386810E0,9.843869769E0
9.487831792E0,6.167175293E-2,2.139051819E-1,9.846973114E0,9.849489243E0
9.497863792E0,7.604187012E-2,1.773811340E-1,9.875264282E0,9.877149947E0
9.507894792E0,7.664062500E-2,1.652563477E-1,9.883796539E0,9.885475076E0
9.517925792E0,1.059796143E-1,1.576222229E-1,9.848619690E0,9.850451068E0
9.527956792E0,1.016386414E-1,1.721420288E-1,9.812844086E0,9.814880149E0
9.537987792E0,9.744735718E-2,1.746867371E-1,9.824519806E0,9.826555900E0
9.548019792E0,1.106199646E-1,1.760339355E-1,9.860445099E0,9.862636679E0
9.558050792E0,1.371148682E-1,1.648072815E-1,9.967771912E0,9.970077172E0
9.568081792E0,1.782792664E-1,1.505868530E-1,1.002300705E1,1.002572343E1
9.578112792E0,1.766326904E-1,1.384620667E-1,9.864486694E0,9.867039505E0
9.588143792E0,1.032852173E-1,1.234931946E-1,9.768236847E0,9.769563424E0
9.598175792E0,5.239105225E-2,1.459465027E-1,9.818681946E0,9.819906331E0
9.608206792E0,6.017486572E-2,1.499880981E-1,9.858199768E0,9.859524335E0
9.618237792E0,7.185058594E-2,1.610650635E-1,9.856253815E0,9.857831593E0
9.628268792E0,8.756790161E-2,1.838177490E-1,9.777068481E0,9.779188371E0
9.638299792E0,9.355545044E-2,2.180964661E-1,9.712103577E0,9.715002551E0
9.648331792E0,6.870712280E-2,2.477348328E-1,9.727671204E0,9.731067786E0
9.658362792E0,8.277786255E-2,2.589614868E-1,9.804611206E0,9.808379791E0
9.668393792E0,7.379653931E-2,2.502795410E-1,9.913584595E0,9.917017964E0
9.678424792E0,9.280700684E-2,2.643502808E-1,9.962832184E0,9.966770758E0
9.688455792E0,1.270857239E-1,2.459385681E-1,9.971514130E0,9.975356164E0
9.698487792E0,1.440005493E-1,2.401007080E-1,9.977801056E0,9.981728228E0
9.708518792E0,1.434017944E-1,2.183958435E-1,9.962083740E0,9.965509183E0
9.718549792E0,1.204994202E-1,1.779798889E-1,9.922565918E0,9.924893518E0
9.728581417E0,1.017883301E-1,1.372645569E-1,9.887838135E0,9.889314708E0
9.738612417E0,7.200027466E-2,1.118174744E-1,9.831255798E0,9.832155296E0
9.748644417E0,5.493576050E-2,1.240919495E-1,9.807455292E0,9.808394163E0
9.758675417E0,5.328918457E-2,1.490899658E-1,9.779762878E0,9.781044398E0
9.768706417E0,8.128097534E-2,1.471440125E-1,9.810898132E0,9.812338158E0
9.778737417E0,1.086740112E-1,1.678010559E-1,9.856403503E0,9.858430771E0
9.788768417E0,1.173559570E-1,1.601669312E-1,9.872120819E0,9.874117446E0
9.798800417E0,1.212478638E-1,1.710942078E-1,9.884544983E0,9.886769128E0
9.808831417E0,1.118174744E-1,1.636097717E-1,9.889933777E0,9.891918996E0
9.818862417E0,1.008901978E-1,1.700463867E-1,9.868977356E0,9.870957839E0
9.828893417E0,8.367599487E-2,1.657054138E-1,9.834998016E0,9.836749765E0
9.838924417E0,7.125183105E-2,1.733395386E-1,9.777816925E0,9.779612837E0
9.848956417E0,4.191284180E-2,2.089654541E-1,9.780810699E0,9.783132483E0
9.858987417E0,4.535568237E-2,2.264790344E-1,9.791887665E0,9.794611474E0
9.869018417E0,7.020401001E-2,2.161505127E-1,9.842033386E0,9.844656968E0
9.879049417E0,1.037342834E-1,2.112107849E-1,9.849068756E0,9.851879321E0
9.889080417E0,1.184037781E-1,2.113604736E-1,9.845625916E0,9.848606113E0
9.899112417E0,1.357676697E-1,2.113604736E-1,9.897118835E0,9.900306427E0
9.909143417E0,1.516346741E-1,2.272274780E-1,9.925260315E0,9.929018971E0
9.919174417E0,1.267863464E-1,2.294728088E-1,9.904303894E0,9.907773119E0
9.929205417E0,1.007405090E-1,2.384541321E-1,9.873318329E0,9.876711186E0
9.939236417E0,9.430389404E-2,2.163002014E-1,9.872569885E0,9.875389367E0
9.949268417E0,9.490264893E-2,2.236349487E-1,9.879904633E0,9.882891007E0
9.959299417E0,1.122665405E-1,1.987866211E-1,9.871072998E0,9.873712677E0
9.969330417E0,1.049317932E-1,2.010319519E-1,9.889933777E0,9.892533277E0
9.979361417E0,1.058299255E-1,1.972897339E-1,9.891280975E0,9.893814358E0
9.989392417E0,1.001417542E-1,1.901046753E-1,9.887389069E0,9.889723492E0
9.999423417E0,1.026864624E-1,1.996847534E-1,9.836345215E0,9.838907749E0
1.000945542E1,1.101708984E-1,1.990859985E-1,9.820178833E0,9.822814524E0
1.001948642E1,9.295669556E-2,1.721420288E-1,9.792187042E0,9.794141151E0
1.002951742E1,8.307723999E-2,1.438508606E-1,9.803413696E0,9.804821008E0
1.003954842E1,6.451583862E-2,1.178050232E-1,9.824220428E0,9.825138541E0
1.004957942E1,7.679031372E-2,1.130149841E-1,9.855954437E0,9.856901491E0
1.005961142E1,8.966354370E-2,1.004411316E-1,9.847721558E0,9.848641929E0
1.006964242E1,9.610015869E-2,1.121168518E-1,9.850565643E0,9.851672392E0
1.007967342E1,9.774673462E-2,1.228944397E-1,9.845326538E0,9.846578701E0
1.008970442E1,1.184037781E-1,1.486408997E-1,9.822424164E0,9.824262315E0
1.009973542E1,1.182540894E-1,1.718426514E-1,9.833650818E0,9.835863070E0
1.010976742E1,1.059796143E-1,1.781295776E-1,9.843979340E0,9.846161235E0
1.011979842E1,7.604187012E-2,1.812730408E-1,9.852960663E0,9.854921415E0
1.012982942E1,6.466552734E-2,1.886077881E-1,9.859696655E0,9.861712461E0
1.013986042E1,6.915618896E-2,2.077679443E-1,9.874665527E0,9.877093164E0
1.014989142E1,7.155120850E-2,2.125579834E-1,9.885892181E0,9.888435907E0
1.015992342E1,8.427474976E-2,2.516267395E-1,9.897567902E0,9.901124614E0
1.016995442E1,7.050338745E-2,2.739303589E-1,9.886191559E0,9.890237212E0
1.017998542E1,6.885681152E-2,2.903961182E-1,9.851912842E0,9.856432306E0
1.019001642E1,7.050338745E-2,2.835104370E-1,9.835147705E0,9.839485722E0
1.020004742E1,7.604187012E-2,2.448907471E-1,9.861492920E0,9.864826225E0
1.021007942E1,8.637039185E-2,2.163002014E-1,9.885293427E0,9.888036800E0
1.022011042E1,9.610015869E-2,1.634600830E-1,9.892478485E0,9.894295580E0
1.023014142E1,9.265731812E-2,1.374142456E-1,9.862241364E0,9.863633852E0
1.024017242E1,8.322692871E-2,1.387614441E-1,9.795779572E0,9.797115845E0
1.025020342E1,1.079255676E-1,1.281335449E-1,9.807305603E0,9.808736378E0
1.026023542E1,1.333726501E-1,1.474433899E-1,9.941277008E0,9.943264875E0
1.027026642E1,1.692979431E-1,1.549278259E-1,1.004276596E1,1.004538763E1
1.028029742E1,1.950444031E-1,1.450483704E-1,9.941576385E0,9.944547369E0
1.029032842E1,1.284329224E-1,1.534309387E-1,9.761650543E0,9.763701009E0
1.030035942E1,4.924758911E-2,1.574725342E-1,9.742191010E0,9.743588076E0
1.031039142E1,4.026626587E-2,1.546284485E-1,9.808952179E0,9.810253523E0
1.032042242E1,3.936813354E-2,1.454974365E-1,9.883197784E0,9.884347110E0
1.033045342E1,9.774673462E-2,1.514849854E-1,9.864636383E0,9.866283652E0
1.034048442E1,1.207987976E-1,1.751358032E-1,9.785301361E0,9.787613990E0
1.035051542E1,1.300794983E-1,2.251318359E-1,9.720336456E0,9.723813339E0
1.036054742E1,9.939331055E-2,2.601589966E-1,9.740843811E0,9.744824261E0
1.037057842E1,6.721023560E-2,2.763253784E-1,9.812095642E0,9.816215861E0
1.038060942E1,5.448669434E-2,2.716850281E-1,9.884095917E0,9.887979250E0
1.039064042E1,6.721023560E-2,2.817141724E-1,9.938133545E0,9.942352762E0
1.040067142E1,9.160949707E-2,2.838098145E-1,9.942025452E0,9.946497393E0
1.041070342E1,1.187031555E-1,2.658471680E-1,9.978549500E0,9.982795965E0
1.042073442E1,1.290316772E-1,2.273771667E-1,9.987530823E0,9.990951981E0
1.043076542E1,1.058299255E-1,1.890568542E-1,9.977202301E0,9.979554510E0
1.044079642E1,1.046324158E-1,1.612147522E-1,9.909393311E0,9.911256929E0
1.045082742E1,8.876541138E-2,1.445993042E-1,9.856253815E0,9.857714112E0
1.046085942E1,9.026229858E-2,1.529818726E-1,9.803563385E0,9.805172399E0
1.047089042E1,9.370513916E-2,1.610650635E-1,9.784852295E0,9.786626438E0
1.048092142E1,9.415420532E-2,1.731898499E-1,9.786199493E0,9.788184728E0
1.049095242E1,1.013392639E-1,1.606159973E-1,9.832752686E0,9.834586545E0
1.050098342E1,1.154100037E-1,1.637594604E-1,9.853709106E0,9.855745521E0
1.051101542E1,1.185534668E-1,1.634600830E-1,9.863887939E0,9.865954561E0
1.052104642E1,1.040336609E-1,1.567240906E-1,9.851912842E0,9.853708545E0
1.053107742E1,6.661148071E-2,1.731898499E-1,9.862989807E0,9.864735159E0
1.054110842E1,7.514373779E-2,1.754351807E-1,9.844877472E0,9.846727198E0
1.055113942E1,5.553451538E-2,1.954934692E-1,9.789193268E0,9.791302600E0
1.056117142E1,3.832031250E-2,2.330653381E-1,9.780211945E0,9.783063609E0
1.057120242E1,4.326004028E-2,2.502795410E-1,9.811496887E0,9.814783872E0
1.058123342E1,5.987548828E-2,2.676434326E-1,9.823172607E0,9.827000466E0
1.059126442E1,1.142124939E-1,2.647993469E-1,9.865534515E0,9.869748450E0
1.060129542E1,1.431024170E-1,2.348616028E-1,9.897418213E0,9.901238587E0
1.061132642E1,1.781295776E-1,2.055226135E-1,9.911339264E0,9.915070131E0
1.062135842E1,1.640588379E-1,1.968406677E-1,9.896969147E0,9.900285846E0
1.063138942E1,1.305285645E-1,1.890568542E-1,9.900711365E0,9.903376481E0
1.064142042E1,9.535171509E-2,1.887574768E-1,9.896370392E0,9.898629616E0
1.065145142E1,5.538482666E-2,1.987866211E-1,9.878108368E0,9.880263586E0
1.066148242E1,6.391708374E-2,2.074685669E-1,9.868677979E0,9.871065477E0
1.067151442E1,8.472381592E-2,2.151026917E-1,9.869576111E0,9.872283419E0
1.068154542E1,8.427474976E-2,2.198927307E-1,9.874815216E0,9.877622720E0
1.069157642E1,1.008901978E-1,2.197430420E-1,9.903405762E0,9.906357126E0
1.070160742E1,1.124162292E-1,2.201921082E-1,9.901609497E0,9.904695483E0
1.071163842E1,1.209484863E-1,2.161505127E-1,9.888287201E0,9.891388848E0
1.072167042E1,1.115180969E-1,2.088157654E-1,9.863289185E0,9.866129629E0
1.073170142E1,9.295669556E-2,2.079176331E-1,9.814640350E0,9.817282511E0
1.074173242E1,7.289840698E-2,1.869612122E-1,9.780062256E0,9.782120752E0
1.075176342E1,6.406677246E-2,1.463955688E-1,9.794731750E0,9.796035233E0
1.076179442E1,6.466552734E-2,1.341210938E-1,9.823621674E0,9.824750016E0
1.077182642E1,6.885681152E-2,1.399589539E-1,9.855505371E0,9.856739618E0
1.078185742E1,8.217910767E-2,1.302291870E-1,9.854906616E0,9.856109651E0
1.079188842E1,9.550140381E-2,1.462458801E-1,9.851463776E0,9.853012072E0
1.080191942E1,9.041198730E-2,1.440005493E-1,9.860295410E0,9.861761306E0
1.081195042E1,9.131011963E-2,1.642085266E-1,9.874665527E0,9.876452868E0
1.082198242E1,8.921447754E-2,1.924996948E-1,9.857900391E0,9.860183338E0
1.083201342E1,8.187973022E-2,2.089654541E-1,9.855804749E0,9.858359807E0
1.084204442E1,7.918533325E-2,2.242337036E-1,9.862391052E0,9.865257642E0
1.085207542E1,5.194198608E-2,2.320175171E-1,9.848470001E0,9.851339577E0
1.086210642E1,3.248245239E-2,2.389031982E-1,9.847571869E0,9.850522908E0
1.087213842E1,3.652404785E-2,2.300715637E-1,9.861941986E0,9.864692933E0
1.088216942E1,3.338058472E-2,2.353106689E-1,9.900561676E0,9.903413900E0
1.089220042E1,4.954696655E-2,2.438429260E-1,9.886940002E0,9.890070621E0
1.090223142E1,6.810836792E-2,2.647993469E-1,9.856253815E0,9.860045472E0
1.091226242E1,8.696914673E-2,2.683918762E-1,9.809850311E0,9.813906509E0
1.092229442E1,8.666976929E-2,2.625540161E-1,9.797426147E0,9.801326715E0
1.093232542E1,1.083746338E-1,2.215393066E-1,9.812993774E0,9.816092478E0
1.094235642E1,9.744735718E-2,1.716929626E-1,9.851763153E0,9.853740999E0
1.095238742E1,1.074765015E-1,1.613644409E-1,9.885293427E0,9.887194537E0
1.096241842E1,1.107696533E-1,1.474433899E-1,9.853260040E0,9.854985687E0
1.097245042E1,9.834548950E-2,1.423539734E-1,9.785750427E0,9.787279904E0
1.098248142E1,9.355545044E-2,1.498384094E-1,9.816137238E0,9.817726541E0
1.099251242E1,1.281335449E-1,1.594184875E-1,9.965975647E0,9.968074190E0
1.100254342E1,1.664538574E-1,1.646575928E-1,1.009261230E1,1.009532774E1
1.101257442E1,1.776805115E-1,1.681004333E-1,9.954898682E0,9.957903187E0
1.102260642E1,9.849517822E-2,1.836680603E-1,9.742640076E0,9.744868952E0
1.103263742E1,2.005828857E-2,1.920506287E-1,9.666897583E0,9.668825919E0
1.104266842E1,-1.646575928E-3,1.877096558E-1,9.769883423E0,9.771686637E0
1.105269942E1,2.694396973E-2,1.803749084E-1,9.908195801E0,9.909874122E0
1.106273042E1,7.454498291E-2,1.778302002E-1,9.949659576E0,9.951527834E0
1.107276142E1,1.441502380E-1,1.914518738E-1,9.876611481E0,9.879518584E0
1.108279342E1,1.531315613E-1,2.148033142E-1,9.768985291E0,9.772546411E0
1.109282442E1,1.178050232E-1,2.535726929E-1,9.742490387E0,9.746501735E0
1.110285542E1,8.786727905E-2,2.703378296E-1,9.794731750E0,9.798855712E0
1.111288642E1,3.233276367E-2,2.905458069E-1,9.859996033E0,9.864328869E0
1.112291842E1,3.382965088E-2,2.957849121E-1,9.924062805E0,9.928527369E0
1.113294942E1,7.110214233E-2,2.929408264E-1,9.943672028E0,9.948240208E0
1.114298042E1,9.535171509E-2,2.987786865E-1,9.954449615E0,9.959388927E0
1.115301142E1,1.155596924E-1,2.743794250E-1,9.958191833E0,9.962641352E0
1.116304242E1,1.139131165E-1,2.447410583E-1,9.955796814E0,9.959456039E0
1.117307342E1,1.095721436E-1,2.073188782E-1,9.905202026E0,9.907977309E0
1.118310542E1,7.963439941E-2,1.821711731E-1,9.842033386E0,9.844041302E0
1.119313642E1,6.825805664E-2,1.573228455E-1,9.815089417E0,9.816587487E0
1.120316742E1,4.984634399E-2,1.508862305E-1,9.798473969E0,9.799762417E0
1.121319842E1,4.670288086E-2,1.495390320E-1,9.782008209E0,9.783262630E0
1.122322942E1,6.361770630E-2,1.414558411E-1,9.813592529E0,9.814818149E0
1.123326142E1,8.831634521E-2,1.576222229E-1,9.842632141E0,9.844290325E0
1.124329242E1,9.654922485E-2,1.643582153E-1,9.838740234E0,9.840586607E0
1.125332342E1,8.726852417E-2,1.725910950E-1,9.841734009E0,9.843634074E0
1.126335442E1,9.565109253E-2,1.814227295E-1,9.849966888E0,9.852101859E0
1.127338542E1,7.963439941E-2,1.904040527E-1,9.856553192E0,9.858713718E0
1.128341742E1,7.963439941E-2,2.213896179E-1,9.830207977E0,9.833023130E0
1.129344842E1,4.520599365E-2,2.387535095E-1,9.771979065E0,9.774999829E0
1.130347942E1,1.916015625E-2,2.568658447E-1,9.789342957E0,9.792731115E0
1.131351042E1,1.945953369E-2,2.670446777E-1,9.813891907E0,9.817543781E0
1.132354142E1,5.448669434E-2,2.677931213E-1,9.843829651E0,9.847622259E0
1.133357342E1,9.954299927E-2,2.454895020E-1,9.896370392E0,9.899915193E0
1.134360442E1,1.353186035E-1,2.171983337E-1,9.932595062E0,9.935891048E0
1.135363542E1,1.389111328E-1,2.005828857E-1,9.899663544E0,9.902669745E0
1.136366642E1,1.251397705E-1,1.896556091E-1,9.884095917E0,9.886707303E0
1.137369742E1,1.273851013E-1,1.916015625E-1,9.899513855E0,9.902187268E0
1.138372942E1,9.041198730E-2,2.011816406E-1,9.895921326E0,9.898379022E0
1.139376042E1,6.167175293E-2,2.192939758E-1,9.894125061E0,9.896747141E0
1.140379142E1,8.083190918E-2,2.359094238E-1,9.879904633E0,9.883051280E0
1.141382242E1,7.948471069E-2,2.414479065E-1,9.873318329E0,9.876589985E0
1.142385342E1,9.699829102E-2,2.420466614E-1,9.860145721E0,9.863593103E0
1.143388542E1,9.774673462E-2,2.571652222E-1,9.883347473E0,9.887175818E0
1.144391642E1,8.307723999E-2,2.415975952E-1,9.891879730E0,9.895178413E0
1.145394742E1,7.559280396E-2,2.257305908E-1,9.861642609E0,9.864515371E0
1.146397842E1,6.047424316E-2,1.992356873E-1,9.833201752E0,9.835405873E0
1.147400942E1,4.999603271E-2,1.935475159E-1,9.813442841E0,9.815478625E0
1.148404142E1,5.523513794E-2,1.734892273E-1,9.824819183E0,9.826506064E0
1.149407242E1,7.499404907E-2,1.499880981E-1,9.825567627E0,9.826998511E0
1.150410342E1,7.858657837E-2,1.595681763E-1,9.851763153E0,9.853368717E0
1.151413442E1,9.849517822E-2,1.481918335E-1,9.850116577E0,9.851723641E0
1.152416542E1,9.924362183E-2,1.444496155E-1,9.823621674E0,9.825184872E0
1.153419742E1,9.131011963E-2,1.603166199E-1,9.852960663E0,9.854687858E0
1.154422842E1,6.855743408E-2,1.778302002E-1,9.853858795E0,9.855701744E0
1.155425942E1,5.538482666E-2,1.911524963E-1,9.869576111E0,9.871582414E0
1.156429042E1,3.412902832E-2,1.977388000E-1,9.877060547E0,9.879098667E0
1.157432142E1,4.445755005E-2,1.996847534E-1,9.864187317E0,9.866308423E0
1.158435242E1,3.502716064E-2,2.192939758E-1,9.846673737E0,9.849177652E0
1.159438442E1,4.460723877E-2,2.338137817E-1,9.861642609E0,9.864514871E0
1.160441542E1,4.281097412E-2,2.192939758E-1,9.882149963E0,9.884675540E0
1.161444642E1,4.340972900E-2,2.133064270E-1,9.864037628E0,9.866439194E0
1.162447742E1,2.829116821E-2,2.137554932E-1,9.820777588E0,9.823144315E0
1.163450942E1,2.005828857E-2,1.977388000E-1,9.852810974E0,9.854815425E0
1.164454042E1,3.667373657E-2,2.177970886E-1,9.882599030E0,9.885066723E0
1.165457142E1,7.214996338E-2,2.222877502E-1,9.879455566E0,9.882219374E0
1.166460242E1,1.038839722E-1,2.336640930E-1,9.870474243E0,9.873786132E0
1.167463342E1,1.230441284E-1,2.526745605E-1,9.826914825E0,9.830932778E0
1.168466442E1,1.086740112E-1,2.471360779E-1,9.787846069E0,9.791568667E0
1.169469642E1,8.307723999E-2,2.311193848E-1,9.787546692E0,9.790627572E0
1.170472742E1,5.403762817E-2,1.886077881E-1,9.824519806E0,9.826478636E0
1.171475842E1,4.535568237E-2,1.715432739E-1,9.898316345E0,9.899906601E0
1.172478896E1,4.745132446E-2,1.552272034E-1,9.890532532E0,9.891864378E0
1.173481996E1,6.002517700E-2,1.490899658E-1,9.805659027E0,9.806976078E0
1.174485196E1,5.089416504E-2,1.553768921E-1,9.808054047E0,9.809416719E0
1.175488296E1,8.292755127E-2,1.781295776E-1,9.933792572E0,9.935735604E0
1.176491396E1,1.483415222E-1,1.993853760E-1,1.008527756E1,1.008833897E1
1.177494496E1,1.733395386E-1,2.122586060E-1,9.997709656E0,1.000146483E1
1.178497596E1,1.029858398E-1,2.182461548E-1,9.779463501E0,9.782440587E0
1.179500796E1,3.233276367E-2,2.293231201E-1,9.647138672E0,9.649918085E0
1.180503896E1,-1.930984497E-2,2.228865051E-1,9.703721008E0,9.706299638E0
1.181506996E1,-1.496887207E-4,1.968406677E-1,9.869725800E0,9.871688489E0
1.182510096E1,4.745132446E-2,1.610650635E-1,9.986782379E0,9.988193824E0
1.183513196E1,9.804611206E-2,1.440005493E-1,9.939031677E0,9.940558328E0
1.184516396E1,1.169068909E-1,1.666035461E-1,9.811347198E0,9.813457995E0
1.185519496E1,1.258882141E-1,2.160008240E-1,9.758656769E0,9.761858744E0
1.186522596E1,9.849517822E-2,2.586621094E-1,9.773176575E0,9.777095057E0
1.187525696E1,6.346801758E-2,2.704875183E-1,9.850116577E0,9.854034111E0
1.188528796E1,3.592529297E-2,2.758763123E-1,9.897118835E0,9.901028210E0
1.189531996E1,4.116439819E-2,2.797682190E-1,9.900262299E0,9.904299993E0
1.190535096E1,7.694000244E-2,3.092568970E-1,9.912237396E0,9.917359013E0
1.191538196E1,1.007405090E-1,2.960842896E-1,9.924212494E0,9.929139347E0
1.192541296E1,9.999206543E-2,2.683918762E-1,9.930200043E0,9.934329645E0
1.193544396E1,7.155120850E-2,2.360591125E-1,9.905351715E0,9.908422482E0
1.194547596E1,6.990463257E-2,2.022294617E-1,9.885742493E0,9.888057850E0
1.195550696E1,5.313949585E-2,1.655557251E-1,9.847122803E0,9.848657776E0
1.196553796E1,2.814147949E-2,1.574725342E-1,9.815987549E0,9.817290925E0
1.197556896E1,4.146377563E-2,1.451980591E-1,9.808952179E0,9.810114401E0
1.198559996E1,4.984634399E-2,1.499880981E-1,9.817185059E0,9.818457290E0
1.199563196E1,7.574249268E-2,1.523831177E-1,9.835147705E0,9.836619741E0
1.200566296E1,8.996292114E-2,1.477427673E-1,9.847122803E0,9.848641975E0
1.201569396E1,8.771759033E-2,1.751358032E-1,9.854008484E0,9.855955059E0
1.202572496E1,1.050814819E-1,1.814227295E-1,9.860295410E0,9.862524114E0
1.203575596E1,6.840774536E-2,2.091151428E-1,9.864037628E0,9.866491124E0
1.204578796E1,6.047424316E-2,2.302212524E-1,9.858199768E0,9.861073046E0
1.205581896E1,4.415817261E-2,2.481838989E-1,9.797575836E0,9.800818203E0
1.206584996E1,1.930984497E-2,2.646496582E-1,9.761800232E0,9.765406089E0
1.207588096E1,2.993774414E-3,2.734812927E-1,9.801018677E0,9.804833914E0
1.208591196E1,4.071533203E-2,2.803669739E-1,9.841734009E0,9.845810870E0
1.209594396E1,8.547225952E-2,2.713856506E-1,9.902657318E0,9.906744048E0
1.210597496E1,1.065783691E-1,2.348616028E-1,9.923314362E0,9.926665444E0
1.211600596E1,1.197509766E-1,2.106120300E-1,9.903256073E0,9.906219186E0
1.212603696E1,1.101708984E-1,2.038760376E-1,9.863887939E0,9.866609770E0
1.213606796E1,9.400451660E-2,2.026785278E-1,9.874366150E0,9.876893353E0
1.214609896E1,7.170089722E-2,2.064207458E-1,9.898166656E0,9.900578453E0
1.215613096E1,4.864883423E-2,2.191442871E-1,9.891879730E0,9.894426488E0
1.216616196E1,5.643264771E-2,2.326162720E-1,9.881700897E0,9.884599516E0
1.217619296E1,5.957611084E-2,2.336640930E-1,9.861792297E0,9.864740014E0
1.218622396E1,7.634124756E-2,2.462379456E-1,9.850266266E0,9.853639258E0
1.219625496E1,6.661148071E-2,2.489323425E-1,9.857451324E0,9.860818983E0
1.220628696E1,7.993377686E-2,2.414479065E-1,9.869576111E0,9.872852633E0
1.221631796E1,8.532257080E-2,2.222877502E-1,9.859996033E0,9.862870452E0
1.222634896E1,8.367599487E-2,2.112107849E-1,9.855056305E0,9.857674495E0
1.223637996E1,6.795867920E-2,1.972897339E-1,9.830507355E0,9.832721723E0
1.224641096E1,6.212081909E-2,1.766326904E-1,9.821526031E0,9.823310628E0
1.225644296E1,6.526428223E-2,1.619631958E-1,9.843230896E0,9.844779631E0
1.226647396E1,6.361770630E-2,1.773811340E-1,9.833201752E0,9.835007268E0
1.227650496E1,5.448669434E-2,1.692979431E-1,9.833501129E0,9.835109305E0
1.228653596E1,6.122268677E-2,1.592687988E-1,9.829609222E0,9.831090084E0
1.229656696E1,6.017486572E-2,1.737886047E-1,9.835447083E0,9.837166401E0
1.230659896E1,7.140151978E-2,1.856140137E-1,9.847721558E0,9.849729469E0
1.231662996E1,7.170089722E-2,1.972897339E-1,9.854457550E0,9.856693049E0
1.232666096E1,5.658233643E-2,2.079176331E-1,9.860445099E0,9.862799240E0
1.233669196E1,4.730163574E-2,2.025288391E-1,9.851314087E0,9.853509254E0
1.234672296E1,5.029541016E-2,2.067201233E-1,9.868827667E0,9.871120623E0
1.235675496E1,4.086502075E-2,2.323168945E-1,9.870773621E0,9.873591695E0
1.236678596E1,4.191284180E-2,2.445913696E-1,9.877210236E0,9.880327103E0
1.237681696E1,3.936813354E-2,2.517764282E-1,9.883946228E0,9.887230869E0
1.238684796E1,3.607498169E-2,2.525248718E-1,9.858199768E0,9.861499525E0
1.239687896E1,2.963836670E-2,2.414479065E-1,9.852511597E0,9.855514207E0
1.240691096E1,4.984634399E-2,2.423460388E-1,9.858798523E0,9.861902685E0
1.241694196E1,7.664062500E-2,2.409988403E-1,9.870324554E0,9.873563746E0
1.242697296E1,7.559280396E-2,2.309696960E-1,9.867181091E0,9.870173451E0
1.243700396E1,6.481521606E-2,2.086660767E-1,9.843380585E0,9.845805395E0
1.244703496E1,5.074447632E-2,1.983375549E-1,9.854158173E0,9.856284598E0
1.245706696E1,5.284011841E-2,1.995350647E-1,9.896669769E0,9.898822094E0
1.246709796E1,8.337661743E-2,2.025288391E-1,9.928852844E0,9.931268217E0
1.247712896E1,1.041833496E-1,2.263293457E-1,9.890083466E0,9.893221422E0
1.248715996E1,8.517288208E-2,2.435435486E-1,9.827663269E0,9.831049446E0
1.249719096E1,7.723937988E-2,2.618055725E-1,9.776918793E0,9.780728457E0
1.250722296E1,4.730163574E-2,2.411485291E-1,9.774224396E0,9.777313158E0
1.251725396E1,2.829116821E-2,2.255809021E-1,9.806706848E0,9.809341789E0
1.252728496E1,2.694396973E-2,1.951940918E-1,9.859846344E0,9.861815078E0
1.253731596E1,3.098556519E-2,1.636097717E-1,9.861343231E0,9.862749038E0
1.254734696E1,3.906875610E-2,1.713935852E-1,9.773026886E0,9.774607749E0
1.255737796E1,4.191284180E-2,1.703457642E-1,9.763147430E0,9.764723351E0
1.256740996E1,7.185058594E-2,1.814227295E-1,9.900561676E0,9.902484447E0
1.257744096E1,1.230441284E-1,2.005828857E-1,1.006447083E1,1.006722138E1
1.258747196E1,1.496887207E-1,2.237846375E-1,1.003064117E1,1.003425377E1
1.259750296E1,1.184037781E-1,2.315684509E-1,9.810898132E0,9.814344887E0
1.260753396E1,1.556762695E-2,2.508782959E-1,9.652228088E0,9.655500471E0
1.261756596E1,-3.113525391E-2,2.288740540E-1,9.717192993E0,9.719937881E0
1.262759696E1,-2.095642090E-2,1.977388000E-1,9.876910858E0,9.878912283E0
1.263762796E1,2.484832764E-2,1.808239746E-1,9.991123352E0,9.992790430E0
1.264765896E1,7.993377686E-2,1.633103943E-1,9.945168915E0,9.946830874E0
1.265768996E1,9.071136475E-2,1.859133911E-1,9.857750702E0,9.859920955E0
1.266772196E1,9.864486694E-2,2.291734314E-1,9.781110077E0,9.784291779E0
1.267775296E1,9.265731812E-2,2.561174011E-1,9.792336731E0,9.796123731E0
1.268778396E1,6.137237549E-2,2.884501648E-1,9.859397278E0,9.863806808E0
1.269781496E1,3.472778320E-2,3.043171692E-1,9.895771637E0,9.900510656E0
1.270784596E1,3.906875610E-2,3.116519165E-1,9.904004517E0,9.908983739E0
1.271787796E1,5.867797852E-2,3.278182983E-1,9.904154205E0,9.909751685E0
1.272790942E1,8.816665649E-2,3.267704773E-1,9.916129303E0,9.921903681E0
1.273794042E1,8.427474976E-2,2.932402039E-1,9.909842377E0,9.914538213E0
1.274797142E1,6.571334839E-2,2.692900085E-1,9.906399536E0,9.910276844E0
1.275800242E1,4.101470947E-2,2.424957275E-1,9.881251831E0,9.884312021E0
1.276803442E1,4.805007935E-2,1.916015625E-1,9.845176849E0,9.847158329E0
1.277806542E1,3.113525391E-2,1.710942078E-1,9.820328522E0,9.821868198E0
1.278809642E1,1.871109009E-2,1.745370483E-1,9.797725525E0,9.799297870E0
1.279812742E1,3.802093506E-2,1.673519897E-1,9.820627899E0,9.822127296E0
1.280815842E1,5.089416504E-2,1.504371643E-1,9.834399261E0,9.835681491E0
1.281819042E1,6.616241455E-2,1.613644409E-1,9.859996033E0,9.861538304E0
1.282822142E1,8.517288208E-2,1.815724182E-1,9.856104126E0,9.858144425E0
1.283825242E1,7.753875732E-2,1.950444031E-1,9.859397278E0,9.861631166E0
1.284828342E1,7.843688965E-2,2.136058044E-1,9.859846344E0,9.862471785E0
1.285831442E1,7.484436035E-2,2.402503967E-1,9.867630157E0,9.870838204E0
1.286834642E1,2.978805542E-2,2.586621094E-1,9.800719299E0,9.804177283E0
1.287837742E1,-1.347198486E-3,2.878514099E-1,9.774224396E0,9.778462189E0
1.288840842E1,-2.619552612E-2,2.880010986E-1,9.763895874E0,9.768177592E0
1.289843942E1,-1.062789917E-2,2.875520325E-1,9.834099884E0,9.838308780E0
1.290847042E1,4.834945679E-2,2.772235107E-1,9.901908875E0,9.905906819E0
1.291850242E1,1.047821045E-1,2.607577515E-1,9.925410004E0,9.929387576E0
1.292853342E1,1.216969299E-1,2.453398132E-1,9.895172882E0,9.898961972E0
1.293856442E1,1.107696533E-1,2.195933533E-1,9.858948212E0,9.862015565E0
1.294859542E1,1.016386414E-1,2.115101624E-1,9.867779846E0,9.870569693E0
1.295862642E1,7.469467163E-2,2.110610962E-1,9.890083466E0,9.892617300E0
1.296865842E1,3.547622681E-2,2.177970886E-1,9.897717590E0,9.900177152E0
1.297868942E1,2.829116821E-2,2.290237427E-1,9.881401520E0,9.884095723E0
1.298872042E1,3.308120728E-2,2.520758057E-1,9.865235138E0,9.868510572E0
1.299875142E1,5.523513794E-2,2.674937439E-1,9.870923309E0,9.874701555E0
1.300878242E1,6.406677246E-2,2.685415649E-1,9.884544983E0,9.888399701E0
1.301881342E1,6.975494385E-2,2.659968567E-1,9.895621948E0,9.899442097E0
1.302884542E1,8.008346558E-2,2.478845215E-1,9.890831909E0,9.894261769E0
1.303887642E1,8.322692871E-2,2.291734314E-1,9.877509613E0,9.880518374E0
1.304890742E1,7.469467163E-2,1.960922241E-1,9.838291168E0,9.840528673E0
1.305893842E1,5.343887329E-2,1.871109009E-1,9.832153931E0,9.834079373E0
1.306897042E1,5.209167480E-2,1.710942078E-1,9.836195526E0,9.837821364E0
1.307900142E1,4.116439819E-2,1.767823792E-1,9.828262024E0,9.829937992E0
1.308903242E1,4.296066284E-2,1.725910950E-1,9.829459534E0,9.831068509E0
1.309906342E1,5.418731689E-2,1.919009399E-1,9.844877472E0,9.846896703E0
1.310909442E1,5.328918457E-2,2.026785278E-1,9.822573853E0,9.824809179E0
1.311912542E1,4.745132446E-2,2.128573608E-1,9.826316071E0,9.828735799E0
1.312915742E1,4.909790039E-2,2.248324585E-1,9.841734009E0,9.844424236E0
1.313918842E1,3.742218018E-2,2.279759216E-1,9.870773621E0,9.873476860E0
1.314921942E1,3.876937866E-2,2.320175171E-1,9.881401520E0,9.884201090E0
1.315925042E1,4.805007935E-2,2.261796570E-1,9.883796539E0,9.886500902E0
1.316928142E1,3.382965088E-2,2.357597351E-1,9.865983582E0,9.868858046E0
1.317931342E1,2.978805542E-2,2.492317200E-1,9.859996033E0,9.863190434E0
1.318934442E1,3.981719971E-2,2.607577515E-1,9.879006500E0,9.882527483E0
1.319937542E1,4.191284180E-2,2.523751831E-1,9.856852570E0,9.860172032E0
1.320940642E1,2.993774414E-2,2.556683350E-1,9.845925293E0,9.849289692E0
1.321943742E1,3.008743286E-2,2.508782959E-1,9.838740234E0,9.841984280E0
1.322946942E1,4.161346436E-2,2.430944824E-1,9.843829651E0,9.846918747E0
1.323950042E1,6.421646118E-2,2.302212524E-1,9.874366150E0,9.877258346E0
1.324953142E1,6.780899048E-2,2.234852600E-1,9.878707123E0,9.881467408E0
1.325956242E1,6.421646118E-2,2.174977112E-1,9.854158173E0,9.856767335E0
1.326959342E1,3.951782227E-2,2.050735474E-1,9.844727783E0,9.846942771E0
1.327962542E1,3.472778320E-2,2.103126526E-1,9.865235138E0,9.867537776E0
1.328965642E1,6.825805664E-2,2.139051819E-1,9.905651093E0,9.908195505E0
1.329968742E1,8.277786255E-2,2.475851440E-1,9.893675995E0,9.897119544E0
1.330971842E1,8.592132568E-2,2.586621094E-1,9.842183075E0,9.845956340E0
1.331974942E1,7.798782349E-2,2.785707092E-1,9.794881439E0,9.799152318E0
1.332978142E1,5.284011841E-2,2.707868958E-1,9.765991516E0,9.769887815E0
1.333981242E1,2.395019531E-2,2.505789185E-1,9.793683929E0,9.796918307E0
1.334984342E1,1.930984497E-2,2.128573608E-1,9.863588562E0,9.865903935E0
1.335987442E1,1.886077881E-2,1.969903564E-1,9.895322571E0,9.897301133E0
1.336990542E1,1.811233521E-2,1.859133911E-1,9.822573853E0,9.824349797E0
1.337993742E1,2.799179077E-2,1.760339355E-1,9.776020660E0,9.777645496E0
1.338996842E1,4.161346436E-2,1.839674377E-1,9.864935760E0,9.866738735E0
1.339999942E1,1.016386414E-1,2.264790344E-1,1.004755600E1,1.005062211E1
1.341003042E1,1.520837402E-1,2.411485291E-1,1.010174332E1,1.010576569E1
1.342006142E1,1.264869690E-1,2.344125366E-1,9.884544983E0,9.888133176E0
1.343009342E1,2.529739380E-2,2.466870117E-1,9.682614899E0,9.685789886E0
1.344012442E1,-4.176315308E-2,2.465373230E-1,9.652078400E0,9.655316786E0
1.345015542E1,-3.278182983E-2,2.487826538E-1,9.809550934E0,9.812759906E0
1.346018642E1,5.987548828E-3,2.146536255E-1,9.947414246E0,9.949731765E0
1.347021742E1,6.017486572E-2,1.878593445E-1,9.967173157E0,9.969124981E0
1.348024842E1,9.595046997E-2,1.942959595E-1,9.876312103E0,9.878689092E0
1.349028042E1,1.056802368E-1,2.180964661E-1,9.768536224E0,9.771542066E0
1.350031142E1,9.819580078E-2,2.489323425E-1,9.767937469E0,9.771602332E0
1.351034242E1,6.227050781E-2,2.829116821E-1,9.827513580E0,9.831782128E0
1.352037342E1,2.290237427E-2,2.806663513E-1,9.887389069E0,9.891398319E0
1.353040542E1,1.975891113E-2,2.993774414E-1,9.913285217E0,9.917824412E0
1.354043642E1,4.281097412E-2,3.242257690E-1,9.920769653E0,9.926158655E0
1.355046742E1,6.661148071E-2,3.345542908E-1,9.906998291E0,9.912869353E0
1.356049842E1,7.933502197E-2,3.251239014E-1,9.904752960E0,9.910405178E0
1.357052942E1,6.631210327E-2,2.853067017E-1,9.896819458E0,9.901153094E0
1.358056042E1,4.056564331E-2,2.510279846E-1,9.892927551E0,9.896195034E0
1.359059242E1,3.023712158E-2,2.140548706E-1,9.861642609E0,9.864011796E0
1.360062342E1,2.933898926E-2,1.844165039E-1,9.820029144E0,9.821804448E0
1.361065442E1,1.227447510E-2,1.808239746E-1,9.795330505E0,9.797007078E0
1.362068542E1,1.152603149E-2,1.734892273E-1,9.794731750E0,9.796274875E0
1.363071642E1,2.544708252E-2,1.799258423E-1,9.826166382E0,9.827846490E0
1.364074842E1,4.939727783E-2,1.785786438E-1,9.851912842E0,9.853655010E0
1.365077942E1,6.047424316E-2,1.953437805E-1,9.871671753E0,9.873789522E0
1.366081042E1,7.783813477E-2,2.053729248E-1,9.870025177E0,9.872468476E0
1.367084142E1,8.472381592E-2,2.219883728E-1,9.876162415E0,9.879020245E0
1.368087242E1,7.858657837E-2,2.411485291E-1,9.879305878E0,9.882561059E0
1.369090442E1,6.017486572E-2,2.498304749E-1,9.817933502E0,9.821295970E0
1.370093542E1,2.469863892E-2,2.713856506E-1,9.773475952E0,9.777274282E0
1.371096642E1,-1.451980591E-2,2.915936279E-1,9.770631866E0,9.774992825E0
1.372099742E1,-9.879455566E-3,3.043171692E-1,9.803264008E0,9.807991219E0
1.373102804E1,2.335144043E-2,2.865042114E-1,9.869127045E0,9.873312442E0
1.374106004E1,9.145980835E-2,2.619552612E-1,9.932445374E0,9.936320071E0
1.375109104E1,1.104702759E-1,2.502795410E-1,9.931696930E0,9.935464128E0
1.376112204E1,1.191522217E-1,2.236349487E-1,9.881102142E0,9.884350732E0
1.377115304E1,9.160949707E-2,2.158511353E-1,9.872120819E0,9.874905239E0
1.378118404E1,6.915618896E-2,2.276765442E-1,9.878258057E0,9.881123490E0
1.379121604E1,4.041595459E-2,2.421963501E-1,9.884095917E0,9.887145423E0
1.380124704E1,3.293151855E-2,2.598596191E-1,9.872270508E0,9.875744857E0
1.381127804E1,3.083587646E-2,2.698887634E-1,9.866282959E0,9.870021794E0
1.382130904E1,4.700225830E-2,2.656974792E-1,9.859846344E0,9.863537615E0
1.383134004E1,5.373825073E-2,2.754272461E-1,9.867630157E0,9.871619568E0
1.384137204E1,7.469467163E-2,2.692900085E-1,9.889933777E0,9.893881266E0
1.385140304E1,6.346801758E-2,2.393522644E-1,9.872569885E0,9.875674855E0
1.386143404E1,5.523513794E-2,2.351609802E-1,9.877060547E0,9.880014001E0
1.387146504E1,5.358856201E-2,2.064207458E-1,9.861792297E0,9.864097961E0
1.388149604E1,5.224136353E-2,1.941462708E-1,9.836345215E0,9.838399724E0
1.389152804E1,2.664459229E-2,1.960922241E-1,9.821675720E0,9.823669174E0
1.390155904E1,4.805007935E-2,1.942959595E-1,9.836644592E0,9.838680631E0
1.391159004E1,5.029541016E-2,1.884580994E-1,9.841883698E0,9.843816374E0
1.392162104E1,4.340972900E-2,1.857637024E-1,9.848320312E0,9.850167792E0
1.393165204E1,3.562591553E-2,1.920506287E-1,9.830207977E0,9.832148368E0
1.394168404E1,4.011657715E-2,2.017803955E-1,9.809401245E0,9.811558360E0
1.395171504E1,3.772155762E-2,2.031275940E-1,9.823471985E0,9.825644283E0
1.396174604E1,3.068618774E-2,2.097138977E-1,9.836494904E0,9.838778052E0
1.397177704E1,3.712280273E-2,2.210902405E-1,9.870174866E0,9.872720541E0
1.398180804E1,2.754272461E-2,2.312690735E-1,9.874216461E0,9.876962828E0
1.399183904E1,3.353027344E-2,2.564167786E-1,9.873318329E0,9.876704342E0
1.400187104E1,3.966751099E-2,2.604583740E-1,9.868079224E0,9.871595597E0
1.401190204E1,3.203338623E-2,2.697390747E-1,9.876162415E0,9.879897234E0
1.402193304E1,3.203338623E-2,2.761756897E-1,9.851763153E0,9.855685485E0
1.403196404E1,1.182540894E-2,2.585124207E-1,9.864636383E0,9.868030172E0
1.404199604E1,2.350112915E-2,2.556683350E-1,9.862690430E0,9.866031680E0
1.405202704E1,2.529739380E-2,2.474354553E-1,9.845027161E0,9.848168564E0
1.406205804E1,2.799179077E-2,2.305206299E-1,9.832902374E0,9.835643975E0
1.407208904E1,4.146377563E-2,2.266287231E-1,9.861193542E0,9.863884524E0
1.408212004E1,5.583389282E-2,2.176473999E-1,9.887538757E0,9.890091531E0
1.409215104E1,6.885681152E-2,2.106120300E-1,9.867330780E0,9.869818408E0
1.410218304E1,7.963439941E-2,2.139051819E-1,9.838440857E0,9.841088129E0
1.411221404E1,5.673202515E-2,2.207908630E-1,9.833650818E0,9.836292774E0
1.412224504E1,4.430786133E-2,2.034269714E-1,9.868827667E0,9.871023516E0
1.413227604E1,4.026626587E-2,2.339634705E-1,9.911488953E0,9.914331724E0
1.414230704E1,6.346801758E-2,2.393522644E-1,9.904902649E0,9.907997486E0
1.415233904E1,6.017486572E-2,2.607577515E-1,9.835896149E0,9.839535999E0
1.416237004E1,3.308120728E-2,2.794688416E-1,9.781559143E0,9.785606597E0
1.417240104E1,7.035369873E-3,2.459385681E-1,9.776320038E0,9.779415563E0
1.418243204E1,-1.526824951E-2,2.219883728E-1,9.799821167E0,9.802347008E0
1.419246304E1,-1.392105103E-2,1.974394226E-1,9.862989807E0,9.864975624E0
1.420249504E1,8.681945801E-3,1.936972046E-1,9.876012726E0,9.877915840E0
1.421252604E1,1.975891113E-2,1.793270874E-1,9.816436615E0,9.818094338E0
1.422255704E1,3.607498169E-2,1.913021851E-1,9.774074707E0,9.776013211E0
1.423258804E1,5.508544922E-2,2.107617188E-1,9.884844360E0,9.887244456E0
1.424261904E1,9.819580078E-2,2.219883728E-1,1.003138962E1,1.003432603E1
1.425265104E1,1.414558411E-1,2.362088013E-1,1.009425888E1,1.009801301E1
1.426268204E1,1.103205872E-1,2.372566223E-1,9.902507629E0,9.905963794E0
1.427271304E1,1.706451416E-2,2.359094238E-1,9.707163849E0,9.710045028E0
1.428274404E1,-6.541397095E-2,2.483335876E-1,9.695338440E0,9.698738888E0
1.429277504E1,-7.244934082E-2,2.161505127E-1,9.815987549E0,9.818634401E0
1.430280704E1,-2.035766602E-2,1.975891113E-1,9.932744751E0,9.934730705E0
1.431283804E1,6.406677246E-2,1.802252197E-1,9.933642883E0,9.935484216E0
1.432286904E1,1.158590698E-1,1.945953369E-1,9.854607239E0,9.857209265E0
1.433290004E1,1.248403931E-1,2.128573608E-1,9.780960388E0,9.784072746E0
1.434293104E1,1.101708984E-1,2.493814087E-1,9.766290894E0,9.770095523E0
1.435296304E1,4.864883423E-2,2.633024597E-1,9.819280701E0,9.822930743E0
1.436299404E1,9.879455566E-3,2.836601257E-1,9.887089691E0,9.891162886E0
1.437302504E1,8.981323242E-4,3.140469360E-1,9.912237396E0,9.917211124E0
1.438305604E1,2.065704346E-2,3.203338623E-1,9.913734283E0,9.918929778E0
1.439308704E1,3.652404785E-2,3.194357300E-1,9.892179108E0,9.897402724E0
1.440311904E1,5.074447632E-2,3.038681030E-1,9.876761169E0,9.881564756E0
1.441315004E1,5.074447632E-2,2.733316040E-1,9.883347473E0,9.887256568E0
1.442318104E1,3.173400879E-2,2.384541321E-1,9.871222687E0,9.874153369E0
1.443321204E1,4.131408691E-2,2.050735474E-1,9.834998016E0,9.837222575E0
1.444324304E1,3.936813354E-2,1.661544800E-1,9.811197510E0,9.812683310E0
1.445327504E1,3.128494263E-2,1.411564636E-1,9.820328522E0,9.821392782E0
1.446330604E1,1.122665405E-2,1.505868530E-1,9.834698639E0,9.835857856E0
1.447333704E1,1.047821045E-2,1.487905884E-1,9.858199768E0,9.859328126E0
1.448336804E1,3.547622681E-2,1.636097717E-1,9.856104126E0,9.857525818E0
1.449339904E1,5.837860107E-2,1.863624573E-1,9.861043854E0,9.862977487E0
1.450343104E1,7.020401001E-2,1.954934692E-1,9.871222687E0,9.873407904E0
1.451346204E1,6.780899048E-2,2.230361938E-1,9.875413971E0,9.878165027E0
1.452349304E1,6.451583862E-2,2.383044434E-1,9.873617706E0,9.876703798E0
1.453352404E1,5.254074097E-2,2.502795410E-1,9.794432373E0,9.797770455E0
1.454355504E1,-1.496887207E-3,2.767744446E-1,9.769434357E0,9.773354285E0
1.455358704E1,-4.625381470E-2,2.966830444E-1,9.790839844E0,9.795443078E0
1.456361804E1,-2.604583740E-2,2.850073242E-1,9.810898132E0,9.815071560E0
1.457364904E1,1.287322998E-2,2.799179077E-1,9.872120819E0,9.876096862E0
1.458368004E1,7.634124756E-2,2.586621094E-1,9.902807007E0,9.906478723E0
1.459371104E1,9.565109253E-2,2.480342102E-1,9.918224945E0,9.921786944E0
1.460374204E1,9.131011963E-2,2.312690735E-1,9.897118835E0,9.900241622E0
1.461377404E1,8.472381592E-2,2.215393066E-1,9.883048096E0,9.885893862E0
1.462380504E1,6.960525513E-2,2.127076721E-1,9.906549225E0,9.909077000E0
1.463383604E1,5.149291992E-2,2.261796570E-1,9.893226929E0,9.895946030E0
1.464386704E1,1.901046753E-2,2.333647156E-1,9.874066772E0,9.876842366E0
1.465389804E1,6.137237549E-3,2.498304749E-1,9.866282959E0,9.869447419E0
1.466393004E1,1.871109009E-2,2.603086853E-1,9.844727783E0,9.848186424E0
1.467396104E1,3.113525391E-2,2.679428101E-1,9.861941986E0,9.865630365E0
1.468399204E1,5.493576050E-2,2.600093079E-1,9.872420197E0,9.875996320E0
1.469402304E1,5.448669434E-2,2.453398132E-1,9.881251831E0,9.884447287E0
1.470405404E1,5.149291992E-2,2.290237427E-1,9.863887939E0,9.866680733E0
1.471408604E1,5.508544922E-2,2.013313293E-1,9.833950195E0,9.836165165E0
1.472411779E1,4.296066284E-2,1.838177490E-1,9.821226654E0,9.823040648E0
1.473414879E1,4.056564331E-2,1.778302002E-1,9.816885681E0,9.818580021E0
1.474417979E1,3.068618774E-2,1.734892273E-1,9.827363892E0,9.828943036E0
1.475421079E1,2.424957275E-2,1.682501221E-1,9.847721558E0,9.849188597E0
1.476424279E1,4.101470947E-2,1.749861145E-1,9.845775604E0,9.847415884E0
1.477427379E1,3.278182983E-2,1.898052979E-1,9.849517822E0,9.851401019E0
1.478430479E1,3.502716064E-2,1.938468933E-1,9.840536499E0,9.842507918E0
1.479433579E1,2.230361938E-2,1.948947144E-1,9.845476227E0,9.847430301E0
1.480436679E1,2.874023438E-2,2.218386841E-1,9.858349457E0,9.860886999E0
1.481439879E1,3.861968994E-2,2.260299683E-1,9.874216461E0,9.876878644E0
1.482442979E1,2.125579834E-2,2.459385681E-1,9.865833893E0,9.868921724E0
1.483446079E1,1.481918335E-2,2.574645996E-1,9.871372375E0,9.874740513E0
1.484449179E1,1.691482544E-2,2.606080627E-1,9.870474243E0,9.873928522E0
1.485452279E1,1.721420288E-2,2.597099304E-1,9.865833893E0,9.869266638E0
1.486455479E1,6.137237549E-3,2.522254944E-1,9.861492920E0,9.864719863E0
1.487458579E1,1.541793823E-2,2.556683350E-1,9.854158173E0,9.857486358E0
1.488461679E1,2.679428101E-2,2.520758057E-1,9.864935760E0,9.868192221E0
1.489464779E1,2.454895020E-2,2.393522644E-1,9.861642609E0,9.864577391E0
1.490467879E1,3.802093506E-2,2.366578674E-1,9.839788055E0,9.842707022E0
1.491471079E1,4.565505981E-2,2.206411743E-1,9.842033386E0,9.844612135E0
1.492474179E1,5.658233643E-2,2.236349487E-1,9.864337006E0,9.867033937E0
1.493477279E1,7.035369873E-2,2.182461548E-1,9.877659302E0,9.880320557E0
1.494480379E1,5.927673340E-2,2.040257263E-1,9.867330780E0,9.869617873E0
1.495483479E1,3.891906738E-2,2.028282166E-1,9.838740234E0,9.840907650E0
1.496486679E1,1.960922241E-2,1.963916016E-1,9.847122803E0,9.849100552E0
1.497489779E1,2.948867798E-2,2.056723022E-1,9.884694672E0,9.886878144E0
1.498492879E1,3.293151855E-2,2.207908630E-1,9.918674011E0,9.921185777E0
1.499495979E1,4.999603271E-2,2.484832764E-1,9.870025177E0,9.873279118E0
1.500499079E1,3.936813354E-2,2.673440552E-1,9.814340973E0,9.818060472E0
1.501502279E1,3.906875610E-2,2.689906311E-1,9.783205719E0,9.786980968E0
1.502505379E1,1.706451416E-2,2.546205139E-1,9.790091400E0,9.793416790E0
1.503508479E1,-4.340972900E-3,2.165995789E-1,9.841883698E0,9.844267821E0
1.504511579E1,-1.077758789E-2,1.719923401E-1,9.881850586E0,9.883353101E0
1.505514679E1,1.496887207E-3,1.667532349E-1,9.850565643E0,9.851977080E0
1.506517879E1,9.131011963E-3,1.972897339E-1,9.779613190E0,9.781607268E0
1.507520979E1,3.637435913E-2,2.008822632E-1,9.818981323E0,9.821103350E0
1.508524079E1,7.574249268E-2,2.248324585E-1,9.967173157E0,9.969996354E0
1.509527179E1,1.305285645E-1,2.338137817E-1,1.008228378E1,1.008583922E1
1.510530279E1,1.366658020E-1,2.417472839E-1,9.987231445E0,9.991091594E0
1.511533479E1,5.837860107E-2,2.451901245E-1,9.771679688E0,9.774929676E0
1.512536579E1,-4.340972900E-2,2.332150269E-1,9.682165833E0,9.685071443E0
1.513539679E1,-8.262817383E-2,2.215393066E-1,9.764494629E0,9.767356983E0
1.514542779E1,-3.861968994E-2,1.932481384E-1,9.886640625E0,9.888604511E0
1.515545879E1,1.945953369E-3,1.806742859E-1,9.950408020E0,9.952048370E0
1.516549079E1,7.918533325E-2,1.871109009E-1,9.891280975E0,9.893367482E0
1.517552179E1,1.181044006E-1,2.029779053E-1,9.792636108E0,9.795451528E0
1.518555279E1,1.154100037E-1,2.398013306E-1,9.742640076E0,9.746274149E0
1.519558379E1,6.765930176E-2,2.680924988E-1,9.786349182E0,9.790254424E0
1.520561479E1,2.918930054E-2,2.921923828E-1,9.879006500E0,9.883369761E0
1.521564579E1,2.065704346E-2,2.944377136E-1,9.922565918E0,9.926954955E0
1.522567779E1,1.541793823E-2,2.918930054E-1,9.924511871E0,9.928815394E0
1.523570879E1,3.577560425E-2,3.014730835E-1,9.908944244E0,9.913593796E0
1.524573979E1,4.535568237E-2,3.029699707E-1,9.888436890E0,9.893181089E0
1.525577079E1,4.984634399E-2,2.775228882E-1,9.891131287E0,9.895149405E0
1.526580179E1,3.951782227E-2,2.350112915E-1,9.892029419E0,9.894899595E0
1.527583379E1,2.664459229E-2,2.032772827E-1,9.871372375E0,9.873501110E0
1.528586479E1,3.412902832E-2,1.853146362E-1,9.824070740E0,9.825877681E0
1.529589579E1,2.439926147E-2,1.694476318E-1,9.802216187E0,9.803711032E0
1.530592679E1,8.831634521E-3,1.607656860E-1,9.799521790E0,9.800844398E0
1.531595779E1,2.035766602E-2,1.675016785E-1,9.832303619E0,9.833751355E0
1.532598979E1,2.020797729E-2,1.728904724E-1,9.867031403E0,9.868566673E0
1.533602079E1,4.311035156E-2,1.740879822E-1,9.862391052E0,9.864021614E0
1.534605179E1,6.286926270E-2,1.899549866E-1,9.864037628E0,9.866066783E0
1.535608279E1,7.140151978E-2,1.956431580E-1,9.878856812E0,9.881051884E0
1.536611379E1,6.765930176E-2,2.091151428E-1,9.853110352E0,9.855561401E0
1.537614579E1,6.765930176E-2,2.267784119E-1,9.810748444E0,9.813602359E0
1.538617679E1,2.903961182E-2,2.722837830E-1,9.781409454E0,9.785241574E0
1.539620779E1,-2.963836670E-2,3.082090759E-1,9.787247314E0,9.792143854E0
1.540623879E1,-3.442840576E-2,3.092568970E-1,9.807455292E0,9.812390353E0
1.541626979E1,-9.729766846E-3,2.803669739E-1,9.830507355E0,9.834509401E0
1.542630179E1,2.559677124E-2,2.670446777E-1,9.874066772E0,9.877710397E0
1.543633279E1,7.604187012E-2,2.465373230E-1,9.927954712E0,9.931306449E0
1.544636379E1,8.217910767E-2,2.177970886E-1,9.926607513E0,9.929336619E0
1.545639479E1,7.649093628E-2,1.998344421E-1,9.920619965E0,9.922927247E0
1.546642579E1,8.008346558E-2,1.896556091E-1,9.910740509E0,9.912878495E0
1.547645779E1,5.763015747E-2,2.200424194E-1,9.922715607E0,9.925322408E0
1.548648879E1,4.026626587E-2,2.255809021E-1,9.896819458E0,9.899471880E0
1.549651979E1,9.280700684E-3,2.275268555E-1,9.870623932E0,9.873250296E0
1.550655079E1,1.167572021E-2,2.392025757E-1,9.862690430E0,9.865597636E0
1.551658179E1,2.365081787E-2,2.447410583E-1,9.873917084E0,9.876978087E0
1.552661379E1,4.430786133E-2,2.335144043E-1,9.876761169E0,9.879620608E0
1.553664479E1,6.421646118E-2,2.457888794E-1,9.896220703E0,9.899480801E0
1.554667579E1,5.852828979E-2,2.339634705E-1,9.880353699E0,9.883296701E0
1.555670679E1,4.296066284E-2,2.215393066E-1,9.841883698E0,9.844470529E0
1.556673779E1,3.906875610E-2,2.044747925E-1,9.837393036E0,9.839595421E0
1.557676979E1,4.206253052E-2,1.698966980E-1,9.827962646E0,9.829521043E0
1.558680079E1,2.559677124E-2,1.592687988E-1,9.835447083E0,9.836769849E0
1.559683179E1,2.275268555E-2,1.532812500E-1,9.844428406E0,9.845647945E0
1.560686279E1,4.565505981E-2,1.535806274E-1,9.845775604E0,9.847079193E0
1.561689379E1,5.298980713E-2,1.633103943E-1,9.836943970E0,9.838442197E0
1.562692579E1,5.298980713E-2,1.606159973E-1,9.827513580E0,9.828968847E0
1.563695679E1,5.718109131E-2,1.830693054E-1,9.825417938E0,9.827289642E0
1.564698779E1,3.143463135E-2,1.968406677E-1,9.843380585E0,9.845398708E0
1.565701879E1,1.616638184E-2,1.998344421E-1,9.846973114E0,9.849013893E0
1.566704979E1,-2.245330811E-3,1.981878662E-1,9.873468018E0,9.875457162E0
1.567708179E1,-3.891906738E-3,2.240840149E-1,9.877359924E0,9.879902220E0
1.568711279E1,2.095642090E-3,2.294728088E-1,9.871522064E0,9.874189082E0
1.569714379E1,4.939727783E-3,2.290237427E-1,9.867480469E0,9.870139162E0
1.570717479E1,1.092727661E-2,2.466870117E-1,9.868079224E0,9.871168191E0
1.571720579E1,2.380050659E-2,2.430944824E-1,9.863887939E0,9.866911709E0
1.572723846E1,3.098556519E-2,2.151026917E-1,9.883497162E0,9.885886173E0
1.573726946E1,2.918930054E-2,2.165995789E-1,9.851314087E0,9.853738206E0
1.574730046E1,7.484436035E-3,2.070195007E-1,9.836794281E0,9.838975293E0
1.575733146E1,2.544708252E-3,1.990859985E-1,9.850565643E0,9.852577592E0
1.576736246E1,8.831634521E-3,1.791773987E-1,9.872420197E0,9.874049983E0
1.577739446E1,4.161346436E-2,1.910028076E-1,9.904603271E0,9.906532174E0
1.578742546E1,4.715194702E-2,2.002835083E-1,9.879455566E0,9.881598002E0
1.579745646E1,7.110214233E-2,2.210902405E-1,9.838141479E0,9.840882287E0
1.580748746E1,6.391708374E-2,2.174977112E-1,9.837991791E0,9.840603291E0
1.581751846E1,6.107299805E-2,2.040257263E-1,9.828711090E0,9.831018162E0
1.582755046E1,5.658233643E-2,1.823208618E-1,9.843829651E0,9.845680507E0
1.583758146E1,4.236190796E-2,1.634600830E-1,9.882449341E0,9.883891880E0
1.584761246E1,2.709365845E-2,1.760339355E-1,9.852062531E0,9.853672316E0
1.585764346E1,7.783813477E-3,1.543290710E-1,9.798324280E0,9.799542680E0
1.586767446E1,-1.646575928E-3,1.627116394E-1,9.812395020E0,9.813744128E0
1.587770546E1,3.143463135E-3,1.767823792E-1,9.884245605E0,9.885826879E0
1.588773746E1,7.529342651E-2,1.716929626E-1,1.005025040E1,1.005199884E1
1.589776846E1,1.317260742E-1,1.709445190E-1,1.004486160E1,1.004717962E1
1.590779946E1,9.969268799E-2,1.616638184E-1,9.817185059E0,9.819022166E0
1.591783046E1,1.197509766E-2,1.445993042E-1,9.729168091E0,9.730249951E0
1.592786146E1,-2.649490356E-2,1.685494995E-1,9.762698364E0,9.764189176E0
1.593789346E1,-1.407073975E-2,1.787283325E-1,9.856852570E0,9.858482864E0
1.594792446E1,1.841171265E-2,1.725910950E-1,9.915231171E0,9.916750266E0
1.595795546E1,5.748046875E-2,1.959425354E-1,9.866582336E0,9.868695176E0
1.596798646E1,8.622070312E-2,2.263293457E-1,9.789043579E0,9.792039276E0
1.597801746E1,6.301895142E-2,2.459385681E-1,9.745184784E0,9.748491352E0
1.598804946E1,3.487747192E-2,2.775228882E-1,9.791288910E0,9.795283248E0
1.599808046E1,2.095642090E-3,2.670446777E-1,9.864786072E0,9.868400149E0
1.600811146E1,-1.496887207E-3,2.528242493E-1,9.905501404E0,9.908727487E0
1.601814246E1,-1.496887207E-4,2.421963501E-1,9.932295685E0,9.935248193E0
1.602817346E1,3.218307495E-2,2.318678284E-1,9.930050354E0,9.932809193E0
1.603820546E1,6.676116943E-2,2.249821472E-1,9.932295685E0,9.935067770E0
1.604823646E1,7.454498291E-2,2.171983337E-1,9.939480743E0,9.942133047E0
1.605826746E1,6.616241455E-2,1.966909790E-1,9.920170898E0,9.922341229E0
1.606829846E1,6.047424316E-2,1.748364258E-1,9.873917084E0,9.875650029E0
1.607832946E1,5.269042969E-2,1.573228455E-1,9.812395020E0,9.813797572E0
1.608836146E1,2.305206299E-2,1.583706665E-1,9.788145447E0,9.789453711E0
1.609839246E1,1.302291870E-2,1.630110168E-1,9.791288910E0,9.792654426E0
1.610842346E1,-7.334747314E-3,1.471440125E-1,9.812544708E0,9.813650636E0
1.611845446E1,4.041595459E-3,1.422042847E-1,9.815987549E0,9.817018384E0
1.612848546E1,2.709365845E-2,1.351689148E-1,9.866282959E0,9.867246026E0
1.613851746E1,4.116439819E-2,1.374142456E-1,9.863588562E0,9.864631595E0
1.614854846E1,4.805007935E-2,1.442999268E-1,9.868977356E0,9.870149205E0
1.615857946E1,6.436614990E-2,1.604663086E-1,9.844727783E0,9.846245861E0
1.616861046E1,6.661148071E-2,1.887574768E-1,9.784702606E0,9.786749796E0
1.617864146E1,2.484832764E-2,2.062710571E-1,9.785750427E0,9.787955691E0
1.618867346E1,1.302291870E-2,2.404000854E-1,9.822573853E0,9.825523848E0
1.619870446E1,2.260299683E-2,2.131567383E-1,9.862391052E0,9.864720166E0
1.620873546E1,4.281097412E-2,2.086660767E-1,9.890233154E0,9.892526783E0
1.621876646E1,7.469467163E-2,1.920506287E-1,9.871821442E0,9.873971912E0
1.622879746E1,8.696914673E-2,1.871109009E-1,9.873917084E0,9.876072737E0
1.623882946E1,1.076261902E-1,1.981878662E-1,9.898166656E0,9.900735578E0
1.624886046E1,1.092727661E-1,1.956431580E-1,9.893077240E0,9.895614890E0
1.625889146E1,9.969268799E-2,2.206411743E-1,9.894574127E0,9.897535972E0
1.626892246E1,7.783813477E-2,2.215393066E-1,9.871222687E0,9.874015180E0
1.627895346E1,4.445755005E-2,2.243833923E-1,9.867330780E0,9.869981819E0
1.628898546E1,3.143463135E-2,2.142045593E-1,9.876312103E0,9.878684755E0
1.629901646E1,3.158432007E-2,2.008822632E-1,9.897867279E0,9.899955956E0
1.630904746E1,4.430786133E-2,1.972897339E-1,9.916278992E0,9.918340358E0
1.631907846E1,4.834945679E-2,2.092648315E-1,9.908794556E0,9.911121984E0
1.632910946E1,7.694000244E-2,2.139051819E-1,9.894125061E0,9.896736124E0
1.633914146E1,7.214996338E-2,1.999841309E-1,9.843081207E0,9.845376931E0
1.634917246E1,5.688171387E-2,1.865121460E-1,9.839788055E0,9.841719935E0
1.635920346E1,3.652404785E-2,1.564247131E-1,9.829758911E0,9.831071302E0
1.636923446E1,2.709365845E-2,1.266366577E-1,9.832153931E0,9.833006754E0
1.637926546E1,1.930984497E-2,1.353186035E-1,9.864037628E0,9.864984659E0
1.638929746E1,2.903961182E-2,1.191522217E-1,9.849368134E0,9.850131633E0
1.639932846E1,4.191284180E-2,1.290316772E-1,9.848320312E0,9.849254735E0
1.640935946E1,4.550537109E-2,1.344204712E-1,9.825417938E0,9.826442757E0
1.641939046E1,5.119354248E-2,1.486408997E-1,9.800868988E0,9.802129759E0
1.642942146E1,4.266128540E-2,1.603166199E-1,9.807155914E0,9.808558943E0
1.643945346E1,2.484832764E-2,1.570234680E-1,9.822573853E0,9.823860285E0
1.644948446E1,1.871109009E-2,1.706451416E-1,9.833650818E0,9.835149123E0
1.645951546E1,8.532257080E-3,1.755848694E-1,9.854607239E0,9.856175053E0
1.646954646E1,2.140548706E-2,1.754351807E-1,9.881251831E0,9.882832258E0
1.647957746E1,2.604583740E-2,1.713935852E-1,9.896520081E0,9.898038384E0
1.648960946E1,2.529739380E-2,1.908531189E-1,9.894424438E0,9.896297279E0
1.649964046E1,2.874023438E-2,1.971400452E-1,9.905501404E0,9.907504643E0
1.650967146E1,2.095642090E-2,2.121089172E-1,9.859397278E0,9.861700870E0
1.651970246E1,2.305206299E-2,2.192939758E-1,9.849218445E0,9.851686415E0
1.652973346E1,2.963836670E-2,2.412982178E-1,9.852062531E0,9.855061612E0
1.653976446E1,3.622467041E-2,2.543211365E-1,9.830507355E0,9.833863245E0
1.654979646E1,4.385879517E-2,2.399510193E-1,9.842332764E0,9.845354961E0
1.655982746E1,6.571334839E-2,2.174977112E-1,9.854008484E0,9.856627552E0
1.656985846E1,6.960525513E-2,1.866618347E-1,9.877808990E0,9.879817710E0
1.657988946E1,6.271957397E-2,1.730401611E-1,9.901160431E0,9.902871024E0
1.658992046E1,7.439529419E-2,1.522334290E-1,9.886341248E0,9.887793128E0
1.659995246E1,5.523513794E-2,1.600172424E-1,9.855056305E0,9.856510093E0
1.660998346E1,5.448669434E-2,1.520837402E-1,9.800270233E0,9.801601650E0
1.662001446E1,4.984634399E-2,1.595681763E-1,9.805359650E0,9.806784617E0
1.663004546E1,6.511459351E-2,1.612147522E-1,9.859247589E0,9.860780554E0
1.664007746E1,9.744735718E-2,1.516346741E-1,1.001043320E1,1.001205583E1
1.665010846E1,1.475930786E-1,1.489402771E-1,9.994416504E0,9.996615836E0
1.666013946E1,1.131646729E-1,1.390608215E-1,9.829758911E0,9.831393818E0
