"Time (s)","Acceleration x (m/s^2)","Acceleration y (m/s^2)","Acceleration z (m/s^2)","Absolute acceleration (m/s^2)"
-2.298124949E-3,7.532336426E-1,1.092727661E-1,1.056847275E1,1.059584436E1
7.733875012E-3,7.915539551E-1,2.200424194E-1,1.011282028E1,1.014613771E1
1.776487503E-2,7.780819702E-1,3.275189209E-1,9.563462677E0,9.600650945E0
2.779687505E-2,7.186555481E-1,4.385879517E-1,9.096433868E0,9.135312491E0
3.782787500E-2,6.634204102E-1,4.839436340E-1,8.898994446E0,8.936802013E0
4.785987502E-2,6.613247681E-1,5.141807556E-1,9.061406708E0,9.100045265E0
5.789087503E-2,7.336244202E-1,5.049000549E-1,9.424850922E0,9.466833882E0
6.792287505E-2,7.680528259E-1,4.474195862E-1,9.776020660E0,9.816347049E0
7.795387501E-2,7.840695190E-1,3.778143311E-1,1.005249573E1,1.009010302E1
8.798487502E-2,7.914042664E-1,3.323089600E-1,1.017793488E1,1.021406424E1
9.801687504E-2,7.759863281E-1,2.968327332E-1,1.020308258E1,1.023685296E1
1.080478751E-1,7.411088562E-1,2.871029663E-1,1.012748978E1,1.015862784E1
1.180798750E-1,7.366181946E-1,3.052153015E-1,9.962083740E0,9.993941925E0
1.281108750E-1,7.352709961E-1,3.341052246E-1,9.787097626E0,9.820363011E0
1.381428750E-1,7.515870667E-1,3.573069763E-1,9.670340424E0,9.706082387E0
1.481738750E-1,7.466473389E-1,3.821553040E-1,9.607770538E0,9.644313332E0
1.582058750E-1,7.444020081E-1,4.008663940E-1,9.638157349E0,9.675169523E0
1.682368750E-1,7.553292847E-1,4.050576782E-1,9.704020386E0,9.741796841E0
1.782688751E-1,7.577243042E-1,3.842509460E-1,9.803862762E0,9.840605671E0
1.882998750E-1,7.677534485E-1,3.552113342E-1,9.909692688E0,9.945734242E0
1.983318750E-1,7.685018921E-1,3.347039795E-1,9.992021484E0,1.002711899E1
2.083628750E-1,7.665559387E-1,3.393443298E-1,9.987381134E0,1.002250191E1
2.183948750E-1,7.381150818E-1,3.438349915E-1,9.870623932E0,9.904153330E0
2.284258750E-1,7.021897888E-1,3.427871704E-1,9.889035645E0,9.919858846E0
2.384578750E-1,6.852749634E-1,3.591032410E-1,9.844278717E0,9.874633177E0
2.484888750E-1,6.698570251E-1,3.888912964E-1,9.724976807E0,9.755773612E0
2.585208750E-1,6.716532898E-1,3.766168213E-1,9.674232330E0,9.704830218E0
2.685518750E-1,6.744973755E-1,3.743714905E-1,9.735005951E0,9.765523109E0
2.785838750E-1,6.982978821E-1,3.185375977E-1,9.807305603E0,9.837292784E0
2.886148750E-1,7.056326294E-1,3.179388428E-1,9.903854828E0,9.934049676E0
2.986468750E-1,7.188052368E-1,3.098556519E-1,9.909842377E0,9.940707592E0
3.086778750E-1,7.360194397E-1,3.149450684E-1,9.919871521E0,9.952123693E0
3.187098750E-1,7.655081177E-1,3.417393494E-1,9.897717590E0,9.933156697E0
3.287408750E-1,7.538323975E-1,3.734733582E-1,9.848769379E0,9.884634738E0
3.387728750E-1,7.191046143E-1,3.757186890E-1,9.818831635E0,9.852295704E0
3.488036250E-1,7.171586609E-1,3.712280273E-1,9.834698639E0,9.867797328E0
3.588356250E-1,7.017407227E-1,3.468287659E-1,9.880802765E0,9.911760364E0
3.688666250E-1,7.179071045E-1,3.391946411E-1,9.896370392E0,9.928171561E0
3.788986250E-1,7.072792053E-1,3.350033569E-1,9.892478485E0,9.923386604E0
3.889296250E-1,6.795867920E-1,3.409909058E-1,9.872420197E0,9.901656101E0
3.989616250E-1,6.497987366E-1,3.381468201E-1,9.841135254E0,9.868359780E0
4.089926250E-1,6.301895142E-1,3.640429688E-1,9.821975098E0,9.848901509E0
4.190246250E-1,6.268963623E-1,3.716770935E-1,9.780062256E0,9.807179036E0
4.290556250E-1,6.252497864E-1,3.661386108E-1,9.761800232E0,9.788653561E0
4.390876250E-1,6.179150391E-1,3.815565491E-1,9.783654785E0,9.810571102E0
4.491186250E-1,6.325845337E-1,3.576063538E-1,9.817484436E0,9.844340818E0
4.591506250E-1,6.824308777E-1,3.802093506E-1,9.841284943E0,9.872241912E0
4.691816250E-1,7.146139526E-1,3.652404785E-1,9.847721558E0,9.880369102E0
4.792136250E-1,7.355703735E-1,3.623963928E-1,9.847422180E0,9.881503859E0
4.892446250E-1,7.399113464E-1,3.634442139E-1,9.864187317E0,9.898573226E0
4.992766251E-1,7.280859375E-1,3.474275208E-1,9.835746460E0,9.868775174E0
5.093076250E-1,7.219487000E-1,3.219804382E-1,9.824968872E0,9.856718250E0
5.193386250E-1,7.111711121E-1,3.168910217E-1,9.828112335E0,9.858903405E0
5.293706250E-1,6.988966370E-1,2.960842896E-1,9.826465759E0,9.855736996E0
5.394026250E-1,6.912625122E-1,2.990780640E-1,9.820178833E0,9.849020452E0
5.494336250E-1,6.876699829E-1,2.992277527E-1,9.827812958E0,9.856385483E0
5.594646250E-1,6.867718506E-1,2.874023438E-1,9.846074982E0,9.874180889E0
5.694966250E-1,6.869215393E-1,2.875520325E-1,9.868677979E0,9.896734432E0
5.795276250E-1,6.783892822E-1,3.067121887E-1,9.895023193E0,9.922991907E0
5.895596250E-1,6.786886597E-1,3.297642517E-1,9.881700897E0,9.910467970E0
5.995906250E-1,6.788383484E-1,3.360511780E-1,9.876312103E0,9.905316384E0
6.096226251E-1,6.836283875E-1,3.534150696E-1,9.857002258E0,9.886998711E0
6.196536250E-1,6.846762085E-1,3.821553040E-1,9.843679962E0,9.874859968E0
6.296856250E-1,6.731501770E-1,3.790118408E-1,9.830657043E0,9.860963393E0
6.397166250E-1,6.768923950E-1,3.763174438E-1,9.827214203E0,9.857684166E0
6.497486250E-1,6.655160522E-1,3.835025024E-1,9.811496887E0,9.841517005E0
6.597796250E-1,6.670129395E-1,3.608995056E-1,9.813592529E0,9.842852892E0
6.698116250E-1,6.572831726E-1,3.302133179E-1,9.843679962E0,9.871124414E0
6.798426250E-1,6.511459351E-1,3.020718384E-1,9.848170624E0,9.874295066E0
6.898746250E-1,6.480024719E-1,2.748284912E-1,9.843230896E0,9.868365233E0
6.999056250E-1,6.451583862E-1,2.610571289E-1,9.871372375E0,9.895876553E0
7.099376250E-1,6.601272583E-1,2.586621094E-1,9.919721832E0,9.945026662E0
7.199686251E-1,6.756948853E-1,2.712359619E-1,9.908944244E0,9.935658436E0
7.300006250E-1,6.303392029E-1,2.915936279E-1,9.855355682E0,9.879797062E0
7.400316250E-1,6.017486572E-1,3.225791931E-1,9.808802490E0,9.832536045E0
7.500636250E-1,5.658233643E-1,3.161425781E-1,9.812844086E0,9.834226521E0
7.600946250E-1,5.622308350E-1,2.941383362E-1,9.833800507E0,9.854250518E0
7.701266250E-1,5.915698242E-1,3.095562744E-1,9.864337006E0,9.886906721E0
7.801576250E-1,6.216572571E-1,3.342549133E-1,9.780511322E0,9.805946452E0
7.901896250E-1,6.168672180E-1,3.647914124E-1,9.786349182E0,9.812554624E0
8.002206250E-1,6.752458191E-1,3.535647583E-1,9.915680237E0,9.944932353E0
8.102526250E-1,7.634124756E-1,3.583547974E-1,9.930649109E0,9.966393956E0
8.202836250E-1,7.806266785E-1,3.959266663E-1,9.902657318E0,9.941265407E0
8.303156250E-1,7.253915405E-1,3.936813354E-1,9.791737976E0,9.826459712E0
8.403466250E-1,6.677613831E-1,3.549119568E-1,9.734407196E0,9.763736540E0
8.503786250E-1,6.544390869E-1,2.903961182E-1,9.769434357E0,9.795635154E0
8.604096250E-1,6.896159363E-1,2.404000854E-1,9.803713074E0,9.830877498E0
8.704416250E-1,7.309300232E-1,2.101629639E-1,9.855056305E0,9.884359460E0
8.804726250E-1,7.244934082E-1,2.350112915E-1,9.852511597E0,9.881908002E0
8.905046250E-1,6.848258972E-1,2.880010986E-1,9.791438599E0,9.819582525E0
9.005356250E-1,6.762936401E-1,3.209326172E-1,9.769284668E0,9.797922931E0
9.105676250E-1,6.801855469E-1,3.406915283E-1,9.812993774E0,9.842437194E0
9.205986250E-1,6.791377258E-1,3.703298950E-1,9.836494904E0,9.866863953E0
9.306306251E-1,6.930587769E-1,3.733236694E-1,9.850565643E0,9.881970680E0
9.406616250E-1,6.789880371E-1,3.803590393E-1,9.873468018E0,9.904093520E0
9.506936250E-1,6.673123169E-1,3.644920349E-1,9.858948212E0,9.888226333E0
9.607246250E-1,6.423143005E-1,3.652404785E-1,9.826615448E0,9.854356368E0
9.707566250E-1,6.285429382E-1,3.550616455E-1,9.800120544E0,9.826672768E0
9.807876250E-1,6.144721985E-1,3.370989990E-1,9.751322021E0,9.776476512E0
9.908196250E-1,6.131250000E-1,3.272195435E-1,9.718989258E0,9.743805575E0
1.000850625E0,5.866300964E-1,3.076103210E-1,9.742490387E0,9.764982228E0
1.010881625E0,5.944139099E-1,2.722837830E-1,9.781559143E0,9.803385416E0
1.020913625E0,6.153703308E-1,2.240840149E-1,9.855355682E0,9.877091167E0
1.030944625E0,6.182144165E-1,1.710942078E-1,9.905052338E0,9.925800930E0
1.040976625E0,6.373745728E-1,1.365161133E-1,9.953401794E0,9.974722566E0
1.051007625E0,6.520440674E-1,1.429527283E-1,9.984387360E0,1.000667717E1
1.061039625E0,6.550378418E-1,1.574725342E-1,9.987081757E0,1.000977893E1
1.071070625E0,6.373745728E-1,1.933978271E-1,9.969418488E0,9.991644211E0
1.081102625E0,6.301895142E-1,2.549198914E-1,9.946516113E0,9.969719443E0
1.091133625E0,6.125262451E-1,3.135978699E-1,9.878258057E0,9.902197446E0
1.101165625E0,5.986051941E-1,3.608995056E-1,9.779164124E0,9.804112789E0
1.111196625E0,5.833369446E-1,3.805087280E-1,9.775571594E0,9.800350447E0
1.121228625E0,5.673202515E-1,4.008663940E-1,9.787546692E0,9.812166753E0
1.131259625E0,5.589376831E-1,4.140390015E-1,9.732610931E0,9.757435891E0
1.141291625E0,5.878276062E-1,3.769161987E-1,9.789642334E0,9.814514972E0
1.151322625E0,6.248007202E-1,3.008743286E-1,9.873318329E0,9.897641948E0
1.161354625E0,6.706054688E-1,2.438429260E-1,9.926757202E0,9.952370553E0
1.171385625E0,7.002438354E-1,2.222877502E-1,9.922266541E0,9.949428455E0
1.181417625E0,6.783892822E-1,1.920506287E-1,9.891131287E0,9.916227790E0
1.191448625E0,6.667135620E-1,1.724414062E-1,9.876312103E0,9.900292105E0
1.201480625E0,6.541397095E-1,1.850152588E-1,9.846224670E0,9.869664111E0
1.211511625E0,6.560856628E-1,1.814227295E-1,9.817185059E0,9.840756327E0
1.221543625E0,6.481521606E-1,1.877096558E-1,9.830058289E0,9.853191467E0
1.231574625E0,6.316864014E-1,1.850152588E-1,9.880653076E0,9.902553386E0
1.241606625E0,6.273454285E-1,2.032772827E-1,9.880353699E0,9.902336752E0
1.251637625E0,6.188131714E-1,2.197430420E-1,9.867630157E0,9.889456086E0
1.261669625E0,6.005511475E-1,2.350112915E-1,9.861941986E0,9.883005197E0
1.271700625E0,5.927673340E-1,2.546205139E-1,9.854457550E0,9.875552558E0
1.281732625E0,5.851332092E-1,2.713856506E-1,9.836644592E0,9.857768910E0
1.291763625E0,5.692662048E-1,2.665956116E-1,9.813143463E0,9.833255913E0
1.301795625E0,5.499563599E-1,2.505789185E-1,9.814939728E0,9.833528545E0
1.311826625E0,5.530998230E-1,2.251318359E-1,9.809401245E0,9.827561068E0
1.321858625E0,5.453160095E-1,2.085163879E-1,9.787097626E0,9.804495325E0
1.331889625E0,5.653742981E-1,1.830693054E-1,9.813143463E0,9.831121355E0
1.341921625E0,5.876779175E-1,1.793270874E-1,9.849667511E0,9.868813182E0
1.351953375E0,6.253994751E-1,1.863624573E-1,9.847272491E0,9.868871820E0
1.361985375E0,6.270460510E-1,1.999841309E-1,9.836045837E0,9.858041292E0
1.372016375E0,6.342311096E-1,2.165995789E-1,9.835447083E0,9.858254602E0
1.382048375E0,6.218069458E-1,2.070195007E-1,9.852511597E0,9.874284061E0
1.392079375E0,6.294410706E-1,2.077679443E-1,9.875713348E0,9.897933002E0
1.402111375E0,6.364764404E-1,2.037263489E-1,9.871971130E0,9.894565209E0
1.412142375E0,6.218069458E-1,1.980381775E-1,9.876761169E0,9.898296530E0
1.422174375E0,6.155200195E-1,1.919009399E-1,9.895172882E0,9.916155365E0
1.432205375E0,6.171665955E-1,1.910028076E-1,9.892478485E0,9.913551697E0
1.442236375E0,6.264472961E-1,1.963916016E-1,9.888736267E0,9.910505075E0
1.452268375E0,6.233038330E-1,2.113604736E-1,9.870773621E0,9.892691888E0
1.462299375E0,6.086343384E-1,2.266287231E-1,9.829908600E0,9.851339981E0
1.472331375E0,6.197113037E-1,2.270777893E-1,9.823172607E0,9.845320030E0
1.482362375E0,6.131250000E-1,2.201921082E-1,9.824819183E0,9.846394204E0
1.492394375E0,6.283932495E-1,2.106120300E-1,9.844428406E0,9.866712023E0
1.502425375E0,6.421646118E-1,2.026785278E-1,9.871072998E0,9.894015166E0
1.512457375E0,6.252497864E-1,2.088157654E-1,9.861343231E0,9.883351235E0
1.522488375E0,6.384223938E-1,2.158511353E-1,9.856403503E0,9.879416222E0
1.532520375E0,6.294410706E-1,2.157014465E-1,9.856852570E0,9.879284678E0
1.542551375E0,6.014492798E-1,2.189945984E-1,9.818083191E0,9.838925623E0
1.552583375E0,5.806425476E-1,2.377056885E-1,9.784852295E0,9.804946925E0
1.562614375E0,5.872288513E-1,2.395019531E-1,9.818232880E0,9.838693805E0
1.572646375E0,6.063890076E-1,2.285746765E-1,9.850865021E0,9.872157599E0
1.582677375E0,6.303392029E-1,2.255809021E-1,9.876761169E0,9.899425511E0
1.592709375E0,6.285429382E-1,2.267784119E-1,9.871522064E0,9.894111508E0
1.602740375E0,6.005511475E-1,2.239343262E-1,9.843230896E0,9.864076375E0
1.612772375E0,5.807922363E-1,2.017803955E-1,9.833351440E0,9.852554770E0
1.622803375E0,5.896238708E-1,1.712438965E-1,9.849368134E0,9.868486886E0
1.632835375E0,6.147715759E-1,1.552272034E-1,9.869276733E0,9.889623998E0
1.642866375E0,6.227050781E-1,1.752854919E-1,9.807006226E0,9.828319171E0
1.652898375E0,6.036946106E-1,2.020797729E-1,9.759854279E0,9.780595021E0
1.662929375E0,6.245013428E-1,1.740879822E-1,9.866282959E0,9.887560264E0
1.672961375E0,6.809339905E-1,1.761836243E-1,9.908345490E0,9.933278518E0
1.682992375E0,7.135661316E-1,1.851649475E-1,9.884694672E0,9.912146661E0
1.693024375E0,6.679110718E-1,2.034269714E-1,9.827064514E0,9.851836615E0
1.703055375E0,6.197113037E-1,1.914518738E-1,9.818382568E0,9.839783137E0
1.713087375E0,6.158193970E-1,1.722917175E-1,9.824370117E0,9.845159530E0
1.723118375E0,6.176156616E-1,1.601669312E-1,9.864935760E0,9.885548043E0
1.733150375E0,6.529421997E-1,1.646575928E-1,9.888436890E0,9.911338444E0
1.743181375E0,6.590794373E-1,1.853146362E-1,9.884095917E0,9.907778727E0
1.753213375E0,6.381230164E-1,2.329156494E-1,9.825118561E0,9.848573776E0
1.763244375E0,5.960604858E-1,2.950364685E-1,9.765093384E0,9.787715945E0
1.773276375E0,5.947132874E-1,3.128494263E-1,9.769883423E0,9.792965881E0
1.783307375E0,6.098318481E-1,3.143463135E-1,9.802515564E0,9.826495808E0
1.793339375E0,6.524931335E-1,3.043171692E-1,9.861343231E0,9.887590533E0
1.803370375E0,6.649172974E-1,2.757266235E-1,9.895621948E0,9.921767682E0
1.813402375E0,6.580316162E-1,2.486329651E-1,9.887987823E0,9.912977714E0
1.823433375E0,6.300398254E-1,2.100132751E-1,9.924062805E0,9.946259514E0
1.833465375E0,6.286926270E-1,1.703457642E-1,9.919721832E0,9.941084112E0
1.843496375E0,6.230044556E-1,1.469943237E-1,9.875563660E0,9.896287156E0
1.853527375E0,6.134243774E-1,1.315763855E-1,9.846823425E0,9.866789416E0
1.863559375E0,5.980064392E-1,1.381626892E-1,9.812245331E0,9.831422026E0
1.873591375E0,5.960604858E-1,1.306782532E-1,9.777517548E0,9.796540936E0
1.883622375E0,5.896238708E-1,1.399589539E-1,9.781110077E0,9.799865262E0
1.893653375E0,6.063890076E-1,1.432521057E-1,9.808503113E0,9.828273608E0
1.903685375E0,6.373745728E-1,1.496887207E-1,9.832902374E0,9.854675142E0
1.913716375E0,6.864724731E-1,1.745370483E-1,9.860145721E0,9.885554172E0
1.923748375E0,6.969506836E-1,1.893562317E-1,9.865833893E0,9.892233036E0
1.933779375E0,7.099736023E-1,2.290237427E-1,9.884994049E0,9.913103537E0
1.943811375E0,7.020401001E-1,2.627037048E-1,9.913434906E0,9.941733510E0
1.953842375E0,6.951544189E-1,2.775228882E-1,9.913584595E0,9.941801554E0
1.963874375E0,6.671626282E-1,3.038681030E-1,9.839488678E0,9.866761335E0
1.973905375E0,6.186634827E-1,3.135978699E-1,9.832453308E0,9.856887246E0
1.983937375E0,5.780978394E-1,3.243754578E-1,9.856253815E0,9.878519920E0
1.993968375E0,5.563929749E-1,3.278182983E-1,9.770781555E0,9.792099375E0
2.004000375E0,5.516029358E-1,2.890489197E-1,9.763147430E0,9.782988440E0
2.014031375E0,5.852828979E-1,2.305206299E-1,9.843380585E0,9.863459696E0
2.024063375E0,6.475534058E-1,1.850152588E-1,9.916428680E0,9.939271293E0
2.034094375E0,6.692582703E-1,1.633103943E-1,9.920619965E0,9.944509912E0
2.044126375E0,6.722520447E-1,1.457968140E-1,9.911039886E0,9.934882544E0
2.054157375E0,6.704557800E-1,1.698966980E-1,9.867779846E0,9.891989433E0
2.064189375E0,6.761439514E-1,1.847158813E-1,9.826016693E0,9.850984451E0
2.074220375E0,6.674620056E-1,2.008822632E-1,9.812544708E0,9.837270600E0
2.084252375E0,6.685098267E-1,2.089654541E-1,9.802365875E0,9.827357158E0
2.094283375E0,6.765930176E-1,2.326162720E-1,9.819729767E0,9.845759551E0
2.104315375E0,6.846762085E-1,2.344125366E-1,9.829459534E0,9.856064401E0
2.114346375E0,6.762936401E-1,2.251318359E-1,9.861492920E0,9.887219025E0
2.124378375E0,6.653663635E-1,2.170486450E-1,9.870474243E0,9.895255646E0
2.134409375E0,6.628216553E-1,2.275268555E-1,9.869276733E0,9.894125745E0
2.144441375E0,6.553372192E-1,2.348616028E-1,9.860145721E0,9.884690207E0
2.154472375E0,6.471043396E-1,2.215393066E-1,9.854008484E0,9.877717696E0
2.164504375E0,6.500981140E-1,2.098635864E-1,9.845027161E0,9.868699513E0
2.174535375E0,6.469546509E-1,2.146536255E-1,9.832303619E0,9.855902849E0
2.184567375E0,6.315367126E-1,2.053729248E-1,9.813592529E0,9.836036549E0
2.194598375E0,6.227050781E-1,1.984872437E-1,9.814790039E0,9.836526944E0
2.204630375E0,6.370751953E-1,1.896556091E-1,9.817634125E0,9.840110460E0
2.214661375E0,6.622229004E-1,1.890568542E-1,9.812095642E0,9.836234165E0
2.224693375E0,6.566844177E-1,1.957928467E-1,9.829160156E0,9.853017743E0
2.234724375E0,6.565347290E-1,2.071691895E-1,9.845326538E0,9.869367334E0
2.244755375E0,6.518943787E-1,1.914518738E-1,9.852212219E0,9.875611663E0
2.254787375E0,6.248007202E-1,1.975891113E-1,9.864486694E0,9.886228560E0
2.264818375E0,6.182144165E-1,2.052232361E-1,9.865534515E0,9.887015572E0
2.274850375E0,5.906716919E-1,2.089654541E-1,9.868378601E0,9.888248370E0
2.284881375E0,5.795947266E-1,1.930984497E-1,9.854756927E0,9.873674653E0
2.294913375E0,5.716612244E-1,2.061213684E-1,9.835746460E0,9.854501053E0
2.304944375E0,5.722599792E-1,2.234852600E-1,9.833800507E0,9.852972118E0
2.314976375E0,6.033952332E-1,2.306703186E-1,9.862391052E0,9.883524264E0
2.325007375E0,6.230044556E-1,2.299218750E-1,9.857900391E0,9.880242848E0
2.335039375E0,6.469546509E-1,2.158511353E-1,9.830507355E0,9.854137044E0
2.345070375E0,6.590794373E-1,2.116598511E-1,9.840536499E0,9.864853987E0
2.355102500E0,6.661148071E-1,2.050735474E-1,9.844578094E0,9.869218913E0
2.365133500E0,6.846762085E-1,2.031275940E-1,9.838889923E0,9.864775580E0
2.375165500E0,6.703060913E-1,1.942959595E-1,9.831255798E0,9.855995726E0
2.385196500E0,6.619235229E-1,1.996847534E-1,9.826914825E0,9.851206613E0
2.395228500E0,6.732998657E-1,1.983375549E-1,9.860295410E0,9.885246384E0
2.405259500E0,6.870712280E-1,2.077679443E-1,9.862840118E0,9.888925604E0
2.415291500E0,6.750961304E-1,2.255809021E-1,9.857002258E0,9.882668417E0
2.425322500E0,6.539900208E-1,2.372566223E-1,9.830058289E0,9.854645585E0
2.435354500E0,6.301895142E-1,2.484832764E-1,9.818232880E0,9.841574043E0
2.445385500E0,5.894741821E-1,2.257305908E-1,9.835147705E0,9.855382514E0
2.455417500E0,5.975573730E-1,2.053729248E-1,9.877359924E0,9.897549794E0
2.465448500E0,6.108796692E-1,2.189945984E-1,9.844877472E0,9.866242701E0
2.475480500E0,5.840853882E-1,2.369572449E-1,9.784253540E0,9.804535778E0
2.485511500E0,5.782475281E-1,2.365081787E-1,9.823771362E0,9.843616719E0
2.495543500E0,6.144721985E-1,2.207908630E-1,9.863887939E0,9.885474696E0
2.505574500E0,6.607260132E-1,2.203417969E-1,9.869426422E0,9.893972270E0
2.515606500E0,6.649172974E-1,2.314187622E-1,9.843829651E0,9.868974205E0
2.525637500E0,6.427633667E-1,2.073188782E-1,9.799222412E0,9.822468414E0
2.535669500E0,6.170169067E-1,1.818717957E-1,9.794582062E0,9.815682604E0
2.545700500E0,6.391708374E-1,1.544787598E-1,9.823471985E0,9.845456053E0
2.555732500E0,6.782395935E-1,1.064286804E-1,9.889185333E0,9.912987570E0
2.565763500E0,7.203021240E-1,1.073268127E-1,9.928553467E0,9.955226172E0
2.575795500E0,7.048841858E-1,1.695973206E-1,9.877808990E0,9.904379608E0
2.585826500E0,6.677613831E-1,2.276765442E-1,9.814640350E0,9.839964791E0
2.595858500E0,6.409671021E-1,2.936892700E-1,9.776320038E0,9.801710345E0
2.605889500E0,6.216572571E-1,3.171903992E-1,9.756710815E0,9.781639608E0
2.615920500E0,6.150709534E-1,3.288661194E-1,9.784103851E0,9.808932326E0
2.625952500E0,6.074368286E-1,3.132984924E-1,9.818981323E0,9.842739947E0
2.635983500E0,5.981561279E-1,2.633024597E-1,9.885143738E0,9.906724265E0
2.646015500E0,6.140231323E-1,2.267784119E-1,9.903106384E0,9.924715055E0
2.656046500E0,6.361770630E-1,2.176473999E-1,9.915231171E0,9.938002858E0
2.666078500E0,6.560856628E-1,2.110610962E-1,9.895023193E0,9.918995876E0
2.676109500E0,6.613247681E-1,2.266287231E-1,9.867480469E0,9.892213192E0
2.686141500E0,6.530918884E-1,2.441423035E-1,9.829758911E0,9.854455578E0
2.696172500E0,6.456074524E-1,2.327659607E-1,9.822124786E0,9.846071516E0
2.706204500E0,6.262976074E-1,2.315684509E-1,9.839039612E0,9.861671923E0
2.716235500E0,6.015989685E-1,2.189945984E-1,9.816137238E0,9.836992946E0
2.726267500E0,5.975573730E-1,1.996847534E-1,9.829609222E0,9.849780012E0
2.736298500E0,6.083349609E-1,1.652563477E-1,9.842332764E0,9.862499446E0
2.746330500E0,6.330335999E-1,1.621128845E-1,9.859097900E0,9.880729909E0
2.756361500E0,6.426136780E-1,1.574725342E-1,9.884844360E0,9.906962096E0
2.766393500E0,6.568341064E-1,1.701960754E-1,9.915530548E0,9.938719424E0
2.776424500E0,6.824308777E-1,1.898052979E-1,9.908944244E0,9.934229411E0
2.786456500E0,6.730004883E-1,2.317181396E-1,9.864337006E0,9.889983191E0
2.796487500E0,6.590794373E-1,2.661465454E-1,9.802665253E0,9.828400976E0
2.806519500E0,6.146218872E-1,2.884501648E-1,9.823022919E0,9.846458390E0
2.816550500E0,6.201603699E-1,3.107537842E-1,9.761051788E0,9.785668031E0
2.826582500E0,6.099815369E-1,3.086581421E-1,9.752369843E0,9.776301185E0
2.836613500E0,6.165678406E-1,2.637515259E-1,9.791139221E0,9.814078052E0
2.846645500E0,6.497987366E-1,2.167492676E-1,9.877808990E0,9.901531654E0
2.856676500E0,6.743476868E-1,1.764830017E-1,9.884544983E0,9.909092823E0
2.866708500E0,6.762936401E-1,1.576222229E-1,9.873917084E0,9.898305735E0
2.876739500E0,6.357279968E-1,1.451980591E-1,9.858798523E0,9.880341132E0
2.886771500E0,6.321354675E-1,1.487905884E-1,9.844578094E0,9.865974445E0
2.896802500E0,6.451583862E-1,1.398092651E-1,9.833950195E0,9.856082001E0
2.906834500E0,6.400689697E-1,1.770817566E-1,9.824220428E0,9.846641725E0
2.916865500E0,6.316864014E-1,1.954934692E-1,9.826615448E0,9.848838336E0
2.926897500E0,6.179150391E-1,2.137554932E-1,9.841284943E0,9.862981280E0
2.936928500E0,6.227050781E-1,2.242337036E-1,9.838740234E0,9.860976208E0
2.946960500E0,6.147715759E-1,2.411485291E-1,9.853409729E0,9.875514163E0
2.956991500E0,6.141728210E-1,2.371069336E-1,9.861492920E0,9.883444266E0
2.967023500E0,6.171665955E-1,2.534230042E-1,9.840835876E0,9.863425803E0
2.977054500E0,5.957611084E-1,2.414479065E-1,9.826615448E0,9.847618979E0
2.987086500E0,5.948629761E-1,2.380050659E-1,9.818981323E0,9.839862936E0
2.997117500E0,6.045927429E-1,2.276765442E-1,9.844578094E0,9.865753233E0
3.007148500E0,5.948629761E-1,2.104623413E-1,9.822723541E0,9.842969782E0
3.017180500E0,6.014492798E-1,1.911524963E-1,9.822573853E0,9.842826708E0
3.027211500E0,6.092330933E-1,1.800755310E-1,9.836494904E0,9.856988594E0
3.037243500E0,6.391708374E-1,1.808239746E-1,9.844129028E0,9.866514734E0
3.047274500E0,6.447093201E-1,1.760339355E-1,9.841284943E0,9.863950901E0
3.057306500E0,6.414161682E-1,1.787283325E-1,9.848919067E0,9.871401385E0
3.067337500E0,6.221063232E-1,1.980381775E-1,9.835746460E0,9.857390315E0
3.077369500E0,6.354286194E-1,2.237846375E-1,9.839488678E0,9.862524349E0
3.087400500E0,6.219566345E-1,2.254312134E-1,9.835447083E0,9.857670546E0
3.097432500E0,6.265969849E-1,2.192939758E-1,9.837393036E0,9.859767511E0
3.107463500E0,6.021977234E-1,2.294728088E-1,9.850266266E0,9.871324398E0
3.117495500E0,5.986051941E-1,2.225871277E-1,9.858948212E0,9.879611989E0
3.127526500E0,6.135740662E-1,2.338137817E-1,9.844129028E0,9.866003160E0
3.137558500E0,6.387217712E-1,2.368075562E-1,9.855804749E0,9.879318325E0
3.147589500E0,6.339317322E-1,2.188449097E-1,9.860145721E0,9.882926499E0
3.157621500E0,6.216572571E-1,2.270777893E-1,9.834548950E0,9.856793349E0
3.167652500E0,6.280938721E-1,2.249821472E-1,9.819280701E0,9.841920156E0
3.177684500E0,6.036946106E-1,2.137554932E-1,9.822723541E0,9.843578433E0
3.187715500E0,6.277944946E-1,2.097138977E-1,9.825118561E0,9.847388516E0
3.197747500E0,6.635700989E-1,2.062710571E-1,9.872120819E0,9.896546998E0
3.207778500E0,6.583309937E-1,2.237846375E-1,9.864786072E0,9.889261019E0
3.217810500E0,6.462062073E-1,2.341131592E-1,9.833800507E0,9.857790008E0
3.227841500E0,6.282435608E-1,2.347119141E-1,9.840386810E0,9.863214092E0
3.237873500E0,6.029461670E-1,2.168989563E-1,9.832153931E0,9.853011730E0
3.247904500E0,5.929170227E-1,2.076182556E-1,9.864935760E0,9.884918487E0
3.257936500E0,5.909710693E-1,1.800755310E-1,9.835447083E0,9.854830963E0
3.267967500E0,5.978567505E-1,1.996847534E-1,9.804162140E0,9.824403390E0
3.277999500E0,6.026467896E-1,2.128573608E-1,9.829160156E0,9.849917806E0
3.288030500E0,6.300398254E-1,2.055226135E-1,9.860145721E0,9.882391582E0
3.298062500E0,6.828799438E-1,2.062710571E-1,9.903705139E0,9.929362933E0
3.308093500E0,6.957531738E-1,2.155517578E-1,9.861043854E0,9.887907813E0
3.318125500E0,6.605763245E-1,2.189945984E-1,9.800868988E0,9.825545920E0
3.328156500E0,6.083349609E-1,1.923500061E-1,9.804760895E0,9.825497756E0
3.338187500E0,6.120771790E-1,1.649569702E-1,9.807455292E0,9.827920867E0
3.348219500E0,6.379733276E-1,1.487905884E-1,9.831106110E0,9.852907994E0
3.358250375E0,6.716532898E-1,1.365161133E-1,9.880952454E0,9.904694654E0
3.368282375E0,7.072792053E-1,1.724414062E-1,9.883197784E0,9.909973681E0
3.378313375E0,6.695576477E-1,2.218386841E-1,9.825417938E0,9.850703402E0
3.388345375E0,6.251000977E-1,2.868035889E-1,9.786049805E0,9.810187420E0
3.398376375E0,6.279441833E-1,3.239263916E-1,9.767189026E0,9.792712784E0
3.408408375E0,6.233038330E-1,3.415896606E-1,9.825268250E0,9.850943475E0
3.418439375E0,6.372248840E-1,3.270698547E-1,9.854457550E0,9.880453626E0
3.428471375E0,6.316864014E-1,3.104544067E-1,9.872120819E0,9.897180362E0
3.438502375E0,6.072871399E-1,2.653981018E-1,9.895621948E0,9.917790458E0
3.448534375E0,5.962101746E-1,2.418969727E-1,9.874366150E0,9.895306341E0
3.458565375E0,5.947132874E-1,2.219883728E-1,9.866432648E0,9.886832451E0
3.468597375E0,5.920188904E-1,1.996847534E-1,9.849966888E0,9.869762311E0
3.478628375E0,5.944139099E-1,1.878593445E-1,9.827513580E0,9.847265722E0
3.488660375E0,6.251000977E-1,1.781295776E-1,9.823022919E0,9.844504027E0
3.498691375E0,6.375242615E-1,1.598675537E-1,9.832602997E0,9.854545982E0
3.508723375E0,6.459068298E-1,1.612147522E-1,9.843081207E0,9.865568077E0
3.518754375E0,6.512956238E-1,1.508862305E-1,9.838889923E0,9.861577336E0
3.528786375E0,6.590794373E-1,1.369651794E-1,9.857151947E0,9.880110813E0
3.538817375E0,6.656657410E-1,1.621128845E-1,9.843230896E0,9.867045451E0
3.548849375E0,6.637197876E-1,1.667532349E-1,9.855056305E0,9.878788659E0
3.558880375E0,6.539900208E-1,2.028282166E-1,9.868528290E0,9.892254184E0
3.568912375E0,6.785389709E-1,2.245330811E-1,9.900411987E0,9.926176895E0
3.578943375E0,6.731501770E-1,2.615061951E-1,9.885892181E0,9.912233899E0
3.588975375E0,6.563850403E-1,2.996768188E-1,9.868677979E0,9.895021605E0
3.599006375E0,6.277944946E-1,3.311114502E-1,9.878856812E0,9.904320907E0
3.609038375E0,5.993536377E-1,3.344046021E-1,9.814490662E0,9.838459136E0
3.619069375E0,5.749543762E-1,3.026705933E-1,9.777816925E0,9.799381911E0
3.629101375E0,5.755531311E-1,2.646496582E-1,9.757159882E0,9.777702685E0
3.639132375E0,5.965095520E-1,2.200424194E-1,9.806407471E0,9.826996988E0
3.649164375E0,6.110293579E-1,1.645079041E-1,9.831704865E0,9.852047517E0
3.659195375E0,6.400689697E-1,1.428030396E-1,9.869725800E0,9.891489693E0
3.669227375E0,6.548881531E-1,1.351689148E-1,9.882748718E0,9.905345595E0
3.679258375E0,6.782395935E-1,1.264869690E-1,9.873468018E0,9.897544069E0
3.689289375E0,6.753955078E-1,1.499880981E-1,9.880802765E0,9.904994639E0
3.699321375E0,6.694079590E-1,1.709445190E-1,9.872869263E0,9.897013515E0
3.709352375E0,6.512956238E-1,2.209405518E-1,9.867779846E0,9.891717738E0
3.719384375E0,6.273454285E-1,2.507286072E-1,9.833501129E0,9.856681570E0
3.729415375E0,6.204597473E-1,2.782713318E-1,9.804910583E0,9.828462585E0
3.739447375E0,6.007008362E-1,2.883004761E-1,9.788295135E0,9.810946963E0
3.749478375E0,5.938151550E-1,2.891986084E-1,9.808353424E0,9.830567083E0
3.759510375E0,6.138734436E-1,2.821632385E-1,9.821226654E0,9.844437500E0
3.769541375E0,6.249504089E-1,2.673440552E-1,9.859247589E0,9.882651409E0
3.779573375E0,6.068380737E-1,2.511776733E-1,9.876461792E0,9.898274607E0
3.789604375E0,6.116281128E-1,2.347119141E-1,9.868977356E0,9.890697280E0
3.799636375E0,6.152206421E-1,1.954934692E-1,9.862690430E0,9.883793636E0
3.809667375E0,6.258485413E-1,1.788780212E-1,9.849068756E0,9.870554144E0
3.819699375E0,6.315367126E-1,1.679507446E-1,9.812544708E0,9.834280844E0
3.829730375E0,6.355783081E-1,1.673519897E-1,9.809700623E0,9.831693281E0
3.839762375E0,6.474037170E-1,1.661544800E-1,9.823771362E0,9.846482756E0
3.849793375E0,6.477030945E-1,1.743873596E-1,9.829010468E0,9.851871752E0
3.859825375E0,6.384223938E-1,1.838177490E-1,9.859696655E0,9.882053949E0
3.869856375E0,6.140231323E-1,1.865121460E-1,9.856253815E0,9.877122579E0
3.879888375E0,5.914201355E-1,2.014810181E-1,9.863738251E0,9.883506698E0
3.889919375E0,5.927673340E-1,1.884580994E-1,9.870923309E0,9.890501329E0
3.899951375E0,5.890251160E-1,1.791773987E-1,9.876012726E0,9.895184813E0
3.909982375E0,5.740562439E-1,1.547781372E-1,9.879605255E0,9.897479317E0
3.920014375E0,5.843847656E-1,1.588197327E-1,9.895172882E0,9.913686278E0
3.930045375E0,5.879772949E-1,1.574725342E-1,9.855355682E0,9.874135432E0
3.940077375E0,5.493576050E-1,1.426533508E-1,9.850715332E0,9.867053071E0
3.950108375E0,5.704637146E-1,1.695973206E-1,9.890831909E0,9.908720803E0
3.960140375E0,6.128256226E-1,2.080673218E-1,9.874066772E0,9.895253503E0
3.970171375E0,6.424639893E-1,2.742297363E-1,9.832303619E0,9.857086608E0
3.980203375E0,6.477030945E-1,3.002755737E-1,9.801168365E0,9.827135190E0
3.990234375E0,6.433621216E-1,3.486250305E-1,9.785600739E0,9.812921891E0
4.000266375E0,6.225553894E-1,3.522175598E-1,9.767937469E0,9.794091833E0
4.010297375E0,6.086343384E-1,3.138972473E-1,9.802665253E0,9.826556533E0
4.020329375E0,5.941145325E-1,2.799179077E-1,9.768087158E0,9.790140594E0
4.030360375E0,5.622308350E-1,2.345622253E-1,9.734407196E0,9.753451000E0
4.040391375E0,5.607339478E-1,1.939965820E-1,9.760752411E0,9.778770110E0
4.050423375E0,6.080355835E-1,1.535806274E-1,9.856253815E0,9.876185171E0
4.060454375E0,6.866221619E-1,1.124162292E-1,9.924960938E0,9.949318420E0
4.070486375E0,7.135661316E-1,8.173004150E-2,9.972112885E0,9.997944379E0
4.080517375E0,7.167095947E-1,1.107696533E-1,9.915530548E0,9.942016325E0
4.090549375E0,6.685098267E-1,1.181044006E-1,9.892777863E0,9.916042955E0
4.100580375E0,6.297404480E-1,1.459465027E-1,9.850565643E0,9.871753487E0
4.110612375E0,6.207591248E-1,1.725910950E-1,9.810299377E0,9.831434455E0
4.120643375E0,6.322851562E-1,2.112107849E-1,9.814041595E0,9.836656289E0
4.130675375E0,6.640191650E-1,2.854563904E-1,9.810299377E0,9.836888770E0
4.140706375E0,6.756948853E-1,3.766168213E-1,9.800569611E0,9.831051241E0
4.150738375E0,6.590794373E-1,4.586462402E-1,9.774374084E0,9.807299874E0
4.160769375E0,6.460565186E-1,5.069956970E-1,9.750423889E0,9.784947607E0
4.170801375E0,6.321354675E-1,5.219645691E-1,9.785600739E0,9.819879025E0
4.180832375E0,6.435118103E-1,4.962181091E-1,9.836345215E0,9.869854459E0
4.190864375E0,6.692582703E-1,4.326004028E-1,9.868228912E0,9.900353105E0
4.200895375E0,6.626719666E-1,3.558100891E-1,9.915231171E0,9.943718828E0
4.210927375E0,6.584806824E-1,2.915936279E-1,9.945468292E0,9.971507569E0
4.220958375E0,6.620732117E-1,2.677931213E-1,9.931098175E0,9.956744702E0
4.230990375E0,6.614744568E-1,2.474354553E-1,9.893226929E0,9.918402685E0
4.241021375E0,6.517446899E-1,2.333647156E-1,9.862391052E0,9.886657044E0
4.251053375E0,6.592291260E-1,2.430944824E-1,9.810898132E0,9.836025627E0
4.261084375E0,6.438111877E-1,2.585124207E-1,9.801318054E0,9.825841293E0
4.271116375E0,6.469546509E-1,2.444416809E-1,9.797725525E0,9.822104027E0
4.281147375E0,6.515950012E-1,2.311193848E-1,9.795031128E0,9.819400542E0
4.291179375E0,6.677613831E-1,2.149530029E-1,9.826316071E0,9.851324661E0
4.301210375E0,6.578819275E-1,2.010319519E-1,9.832303619E0,9.856338922E0
4.311242375E0,6.731501770E-1,1.963916016E-1,9.818981323E0,9.843987761E0
4.321273375E0,6.813830566E-1,2.267784119E-1,9.821226654E0,9.847446588E0
4.331305375E0,6.899153137E-1,2.260299683E-1,9.841734009E0,9.868475109E0
4.341336375E0,7.012916565E-1,2.574645996E-1,9.818532257E0,9.846911886E0
4.351368375E0,7.006929016E-1,2.665956116E-1,9.847871246E0,9.876366328E0
4.361399500E0,6.617738342E-1,3.147953796E-1,9.895172882E0,9.922272275E0
4.371430500E0,6.480024719E-1,3.483256531E-1,9.822274475E0,9.849787502E0
4.381462500E0,6.283932495E-1,3.480262756E-1,9.840386810E0,9.866570475E0
4.391493500E0,6.066883850E-1,3.399430847E-1,9.846823425E0,9.871350651E0
4.401525500E0,6.059399414E-1,3.341052246E-1,9.843230896E0,9.867521674E0
4.411556500E0,5.989045715E-1,3.168910217E-1,9.851164398E0,9.874439053E0
4.421588500E0,6.105802917E-1,3.026705933E-1,9.872420197E0,9.895913213E0
4.431619500E0,6.435118103E-1,2.906954956E-1,9.871222687E0,9.896446264E0
4.441651500E0,6.776408386E-1,2.703378296E-1,9.867031403E0,9.893967270E0
4.451682500E0,6.882687378E-1,2.516267395E-1,9.871821442E0,9.898984213E0
4.461714500E0,6.825805664E-1,2.549198914E-1,9.853709106E0,9.880611496E0
4.471745500E0,6.971003723E-1,2.465373230E-1,9.844129028E0,9.871859293E0
4.481777500E0,6.918612671E-1,2.580633545E-1,9.835896149E0,9.863575506E0
4.491808500E0,6.703060913E-1,2.529739380E-1,9.800868988E0,9.827020860E0
4.501840500E0,6.556365967E-1,2.558180237E-1,9.803114319E0,9.828344345E0
4.511871500E0,6.611750793E-1,2.585124207E-1,9.814490662E0,9.840132525E0
4.521903500E0,6.658154297E-1,2.571652222E-1,9.812694397E0,9.838618575E0
4.531934500E0,6.581813049E-1,2.624043274E-1,9.826316071E0,9.851829585E0
4.541966500E0,6.322851562E-1,2.559677124E-1,9.842332764E0,9.865942338E0
4.551997500E0,6.439608765E-1,2.306703186E-1,9.837542725E0,9.861295111E0
4.562029500E0,6.409671021E-1,2.511776733E-1,9.831854553E0,9.855926796E0
4.572060500E0,6.276448059E-1,2.447410583E-1,9.837243347E0,9.860283609E0
4.582092500E0,6.486012268E-1,2.405497742E-1,9.846673737E0,9.870943796E0
4.592123500E0,6.496490479E-1,2.448907471E-1,9.845326538E0,9.869775580E0
4.602155500E0,6.583309937E-1,2.610571289E-1,9.848170624E0,9.873601934E0
4.612186500E0,6.512956238E-1,2.580633545E-1,9.857451324E0,9.882313965E0
4.622218500E0,6.563850403E-1,2.790197754E-1,9.863438873E0,9.889192068E0
4.632249500E0,6.484515381E-1,2.772235107E-1,9.866881714E0,9.892052215E0
4.642281500E0,6.336323547E-1,2.899470520E-1,9.866582336E0,9.891157984E0
4.652312500E0,6.123765564E-1,2.975811768E-1,9.860145721E0,9.883624500E0
4.662344500E0,6.195616150E-1,2.893482971E-1,9.849517822E0,9.873225429E0
4.672375500E0,6.189628601E-1,2.945874023E-1,9.843230896E0,9.867071056E0
4.682407500E0,6.348298645E-1,2.799179077E-1,9.837842102E0,9.862276624E0
4.692438500E0,6.417155457E-1,2.677931213E-1,9.846224670E0,9.870747300E0
4.702470500E0,6.556365967E-1,2.507286072E-1,9.815987549E0,9.841053589E0
4.712501500E0,6.578819275E-1,2.293231201E-1,9.808952179E0,9.833663639E0
4.722532500E0,6.801855469E-1,2.251318359E-1,9.849966888E0,9.875990301E0
4.732564500E0,6.981481934E-1,2.369572449E-1,9.842183075E0,9.869758220E0
4.742595500E0,7.060816956E-1,2.492317200E-1,9.821376343E0,9.849878227E0
4.752627500E0,6.794371033E-1,2.504292297E-1,9.831555176E0,9.858185774E0
4.762658500E0,6.598278809E-1,2.555186462E-1,9.839039612E0,9.864449457E0
4.772690500E0,6.722520447E-1,2.475851440E-1,9.869276733E0,9.895243527E0
4.782721500E0,6.668632507E-1,2.344125366E-1,9.890682220E0,9.915908966E0
4.792753500E0,6.453080750E-1,2.406994629E-1,9.853409729E0,9.877451191E0
4.802784500E0,6.173162842E-1,2.495310974E-1,9.829609222E0,9.852134927E0
4.812816500E0,6.189628601E-1,2.519261169E-1,9.874665527E0,9.897252198E0
4.822847500E0,6.535409546E-1,2.360591125E-1,9.896669769E0,9.921033827E0
4.832879500E0,6.816824341E-1,2.448907471E-1,9.933942261E0,9.960314817E0
4.842910500E0,6.830296326E-1,2.670446777E-1,9.842482452E0,9.869767128E0
4.852942500E0,6.563850403E-1,2.718347168E-1,9.768536224E0,9.794336905E0
4.862973500E0,6.294410706E-1,2.606080627E-1,9.766889648E0,9.790620309E0
4.873005500E0,6.268963623E-1,2.260299683E-1,9.756261749E0,9.778994423E0
4.883036500E0,6.800358582E-1,1.868115234E-1,9.789043579E0,9.814413967E0
4.893068500E0,7.363188171E-1,1.838177490E-1,9.834548950E0,9.863787681E0
4.903099500E0,7.649093628E-1,2.192939758E-1,9.857002258E0,9.889068192E0
4.913131500E0,7.343728638E-1,2.856060791E-1,9.838141479E0,9.869645490E0
4.923162500E0,6.953041077E-1,3.233276367E-1,9.791887665E0,9.821866045E0
4.933194500E0,6.590794373E-1,3.568579102E-1,9.794731750E0,9.823365174E0
4.943225500E0,6.502478027E-1,3.432362366E-1,9.831255798E0,9.858713095E0
4.953257500E0,6.617738342E-1,3.192860413E-1,9.869426422E0,9.896740175E0
4.963288500E0,6.580316162E-1,3.073109436E-1,9.891879730E0,9.918504435E0
4.973320500E0,6.586303711E-1,2.906954956E-1,9.895771637E0,9.921924920E0
4.983351500E0,6.474037170E-1,2.772235107E-1,9.888736267E0,9.913782800E0
4.993383500E0,6.450086975E-1,2.710862732E-1,9.860894165E0,9.885684484E0
5.003414500E0,6.423143005E-1,2.568658447E-1,9.832153931E0,9.856459742E0
5.013446500E0,6.494993591E-1,2.505789185E-1,9.824370117E0,9.849004387E0
5.023477500E0,6.740483093E-1,2.495310974E-1,9.817185059E0,9.843461249E0
5.033508500E0,6.755451965E-1,2.401007080E-1,9.826765137E0,9.852883980E0
5.043540500E0,6.822811890E-1,2.317181396E-1,9.819430389E0,9.845832321E0
5.053571500E0,6.807843018E-1,2.089654541E-1,9.822873230E0,9.848653325E0
5.063603500E0,6.831793213E-1,1.911524963E-1,9.829758911E0,9.855325135E0
5.073634500E0,6.969506836E-1,2.023791504E-1,9.832153931E0,9.858901992E0
5.083666500E0,7.011419678E-1,2.185455322E-1,9.835596771E0,9.862977545E0
5.093697500E0,7.289840698E-1,2.438429260E-1,9.880503387E0,9.910359445E0
5.103729500E0,7.394622803E-1,2.923420715E-1,9.908195801E0,9.940050924E0
5.113760500E0,7.461982727E-1,3.335064697E-1,9.860295410E0,9.894112593E0
5.123792500E0,7.089257812E-1,3.734733582E-1,9.870773621E0,9.903243407E0
5.133823500E0,6.601272583E-1,3.860472107E-1,9.861492920E0,9.891099183E0
5.143855500E0,6.261479187E-1,3.772155762E-1,9.791887665E0,9.819135239E0
5.153886500E0,6.114784241E-1,3.514691162E-1,9.812844086E0,9.838157625E0
5.163918500E0,6.258485413E-1,3.122506714E-1,9.836045837E0,9.860881532E0
5.173949500E0,6.611750793E-1,2.598596191E-1,9.869276733E0,9.894811911E0
5.183981500E0,6.753955078E-1,2.255809021E-1,9.879904633E0,9.905531858E0
5.194012500E0,6.918612671E-1,2.165995789E-1,9.889185333E0,9.915723571E0
5.204044500E0,7.036866760E-1,2.194436646E-1,9.886341248E0,9.913782009E0
5.214075500E0,7.146139526E-1,2.273771667E-1,9.868228912E0,9.896682037E0
5.224107500E0,7.119195557E-1,2.332150269E-1,9.861492920E0,9.889907043E0
5.234138500E0,6.976991272E-1,2.462379456E-1,9.851463776E0,9.879208254E0
5.244170500E0,6.932084656E-1,2.516267395E-1,9.855355682E0,9.882908965E0
5.254201500E0,6.842271423E-1,2.800675964E-1,9.853559418E0,9.881256896E0
5.264233500E0,6.779402161E-1,2.734812927E-1,9.861343231E0,9.888401553E0
5.274264500E0,6.861730957E-1,2.947370911E-1,9.864786072E0,9.893013076E0
5.284296500E0,6.761439514E-1,3.017724609E-1,9.894125061E0,9.921791571E0
5.294327500E0,6.602769470E-1,3.213816833E-1,9.898466034E0,9.925667819E0
5.304359500E0,6.545887756E-1,3.302133179E-1,9.889335022E0,9.916474902E0
5.314390500E0,6.478527832E-1,3.219804382E-1,9.896071014E0,9.922479839E0
5.324422500E0,6.490502930E-1,3.336561584E-1,9.880204010E0,9.907119864E0
5.334453500E0,6.659651184E-1,3.275189209E-1,9.859397278E0,9.887289460E0
5.344485500E0,6.789880371E-1,3.306623840E-1,9.839039612E0,9.867981701E0
5.354516542E0,6.936575317E-1,3.044668579E-1,9.841284943E0,9.870397670E0
5.364547542E0,7.132667542E-1,2.948867798E-1,9.869426422E0,9.899559868E0
5.374579542E0,7.304809570E-1,3.112028503E-1,9.866133270E0,9.898031893E0
5.384610542E0,7.249424744E-1,3.189866638E-1,9.846224670E0,9.878027857E0
5.394642542E0,7.234455872E-1,3.251239014E-1,9.823022919E0,9.854991544E0
5.404673542E0,7.111711121E-1,3.315605164E-1,9.793234863E0,9.824619372E0
5.414705542E0,7.072792053E-1,3.272195435E-1,9.795629883E0,9.826580346E0
5.424736542E0,7.137158203E-1,3.083587646E-1,9.793833618E0,9.824645151E0
5.434768542E0,7.095245361E-1,2.694396973E-1,9.801467743E0,9.830808346E0
5.444799542E0,7.220983887E-1,2.502795410E-1,9.812544708E0,9.842260898E0
5.454831542E0,7.289840698E-1,2.564167786E-1,9.843081207E0,9.873368979E0
5.464862542E0,7.602690125E-1,2.463876343E-1,9.864636383E0,9.896957452E0
5.474894542E0,7.652087402E-1,2.549198914E-1,9.896071014E0,9.928884635E0
5.484925542E0,7.734416199E-1,2.935395813E-1,9.887987823E0,9.922533982E0
5.494957542E0,7.405101013E-1,3.225791931E-1,9.847422180E0,9.880492707E0
5.504988542E0,7.321275330E-1,3.394940186E-1,9.858648834E0,9.891623919E0
5.515020542E0,7.276368713E-1,3.568579102E-1,9.872120819E0,9.905330507E0
5.525051542E0,7.357200623E-1,3.864962769E-1,9.834848328E0,9.869898936E0
5.535083542E0,7.390132141E-1,3.790118408E-1,9.824370117E0,9.859413710E0
5.545114542E0,7.397616577E-1,3.826043701E-1,9.820328522E0,9.855581449E0
5.555146542E0,7.324269104E-1,3.791615295E-1,9.848919067E0,9.883391090E0
5.565177542E0,7.450007629E-1,3.638932800E-1,9.849368134E0,9.884204424E0
5.575209542E0,7.400610352E-1,3.365002441E-1,9.848020935E0,9.881520080E0
5.585240542E0,7.364685059E-1,3.365002441E-1,9.822274475E0,9.855592024E0
5.595272542E0,7.466473389E-1,3.574566650E-1,9.797875214E0,9.832782730E0
5.605303542E0,7.342231750E-1,3.571572876E-1,9.752369843E0,9.786488775E0
5.615335542E0,7.448510742E-1,3.305126953E-1,9.795779572E0,9.829615414E0
5.625366542E0,7.741900635E-1,2.983296204E-1,9.844727783E0,9.879627318E0
5.635398542E0,8.123606873E-1,2.776725769E-1,9.856553192E0,9.893870465E0
5.645429542E0,8.047265625E-1,2.519261169E-1,9.871372375E0,9.907322756E0
5.655461542E0,7.945477295E-1,2.448907471E-1,9.850415955E0,9.885442431E0
5.665492542E0,7.699987793E-1,2.576142883E-1,9.810898132E0,9.844439314E0
5.675523542E0,7.780819702E-1,2.498304749E-1,9.804012451E0,9.838012348E0
5.685555542E0,8.078700256E-1,2.621049500E-1,9.837842102E0,9.874436197E0
5.695586542E0,8.054750061E-1,3.240760803E-1,9.817634125E0,9.855950238E0
5.705618542E0,7.927514648E-1,3.894900513E-1,9.792336731E0,9.832091132E0
5.715649542E0,7.508386230E-1,4.375401306E-1,9.758956146E0,9.797572407E0
5.725681542E0,7.445516968E-1,4.529580688E-1,9.769733734E0,9.808528201E0
5.735712542E0,7.668553162E-1,4.537065125E-1,9.825417938E0,9.865736381E0
5.745744542E0,7.810757446E-1,4.195774841E-1,9.885443115E0,9.925125197E0
5.755775542E0,7.732919312E-1,3.861968994E-1,9.916877747E0,9.954476013E0
5.765807542E0,7.770341492E-1,3.629951477E-1,9.926757202E0,9.963737055E0
5.775838542E0,7.768844604E-1,3.418890381E-1,9.907447357E0,9.943739272E0
5.785870542E0,7.614665222E-1,3.228785706E-1,9.871971130E0,9.906558223E0
5.795901542E0,7.577243042E-1,3.128494263E-1,9.827513580E0,9.861645099E0
5.805933542E0,7.731422424E-1,3.194357300E-1,9.800868988E0,9.836504513E0
5.815964542E0,7.670050049E-1,3.252735901E-1,9.805659027E0,9.840988189E0
5.825996542E0,7.750881958E-1,3.230282593E-1,9.779762878E0,9.815746071E0
5.836027542E0,7.961943054E-1,3.255729675E-1,9.797426147E0,9.835114755E0
5.846059542E0,7.967930603E-1,3.210823059E-1,9.808054047E0,9.845602938E0
5.856090542E0,8.041278076E-1,3.161425781E-1,9.811796265E0,9.849767185E0
5.866122542E0,8.051756287E-1,3.031196594E-1,9.825867004E0,9.863460433E0
5.876153542E0,8.000862122E-1,3.100053406E-1,9.834698639E0,9.872058477E0
5.886185542E0,7.982899475E-1,3.014730835E-1,9.839338989E0,9.876271797E0
5.896216542E0,8.134085083E-1,3.257226562E-1,9.811796265E0,9.850841314E0
5.906248542E0,8.111631775E-1,3.369493103E-1,9.868827667E0,9.907839324E0
5.916279542E0,8.141569519E-1,3.731739807E-1,9.892328796E0,9.932788097E0
5.926311542E0,7.848179626E-1,4.026626587E-1,9.773176575E0,9.812902568E0
5.936342542E0,7.631130981E-1,3.787124634E-1,9.822124786E0,9.859000966E0
5.946374542E0,7.834707642E-1,3.387455750E-1,9.891280975E0,9.928041818E0
5.956405542E0,8.156538391E-1,3.576063538E-1,9.851463776E0,9.891638490E0
5.966437542E0,7.809260559E-1,3.528163147E-1,9.813442841E0,9.850786022E0
5.976468542E0,7.626640320E-1,3.430865479E-1,9.812844086E0,9.848414789E0
5.986499542E0,7.801776123E-1,3.406915283E-1,9.843230896E0,9.879976837E0
5.996531542E0,8.129594421E-1,3.384461975E-1,9.855954437E0,9.895215346E0
6.006562542E0,8.387059021E-1,3.365002441E-1,9.853260040E0,9.894614365E0
6.016594542E0,8.496331787E-1,3.103047180E-1,9.848170624E0,9.889622348E0
6.026625542E0,8.409512329E-1,3.077600098E-1,9.840985565E0,9.881645212E0
6.036657542E0,8.336164856E-1,3.112028503E-1,9.813592529E0,9.853850110E0
6.046688542E0,8.131091309E-1,3.186872864E-1,9.781409454E0,9.820319697E0
6.056720542E0,7.984396362E-1,3.053649902E-1,9.789342957E0,9.826596010E0
6.066751542E0,8.089178467E-1,3.074606323E-1,9.807754669E0,9.845858610E0
6.076783542E0,8.065228271E-1,3.058140564E-1,9.801767120E0,9.839646335E0
6.086814542E0,7.929011536E-1,2.820135498E-1,9.815388794E0,9.851399954E0
6.096846542E0,7.701484680E-1,2.740800476E-1,9.813742218E0,9.847729934E0
6.106877542E0,7.655081177E-1,2.594105530E-1,9.818232880E0,9.851446259E0
6.116909542E0,7.575746155E-1,2.520758057E-1,9.803862762E0,9.836319768E0
6.126940542E0,7.565267944E-1,2.727328491E-1,9.825567627E0,9.858422551E0
6.136972542E0,7.714956665E-1,2.769241333E-1,9.840835876E0,9.874914850E0
6.147003542E0,7.885601807E-1,2.903961182E-1,9.815987549E0,9.851891627E0
6.157035542E0,8.017327881E-1,3.106040955E-1,9.813592529E0,9.851185142E0
6.167066542E0,7.960446167E-1,3.252735901E-1,9.829309845E0,9.866854715E0
6.177098542E0,8.024812317E-1,3.397933960E-1,9.808054047E0,9.846692839E0
6.187129542E0,7.963439941E-1,3.532653809E-1,9.817484436E0,9.856062136E0
6.197161542E0,8.009843445E-1,3.373983765E-1,9.810299377E0,9.848725169E0
6.207192542E0,8.029302979E-1,3.460803223E-1,9.821376343E0,9.860218148E0
6.217224542E0,8.192463684E-1,3.414399719E-1,9.837991791E0,9.877946565E0
6.227255542E0,8.250842285E-1,3.417393494E-1,9.844877472E0,9.885300309E0
6.237287542E0,8.132588196E-1,3.523672485E-1,9.821526031E0,9.861436314E0
6.247318542E0,7.927514648E-1,3.305126953E-1,9.804611206E0,9.842159033E0
6.257350542E0,7.927514648E-1,3.460803223E-1,9.830806732E0,9.868788552E0
6.267381542E0,7.864645386E-1,3.222798157E-1,9.846823425E0,9.883436767E0
6.277413542E0,8.002359009E-1,3.191363525E-1,9.869276733E0,9.906808202E0
6.287444542E0,8.033793640E-1,3.134481812E-1,9.849667511E0,9.887346370E0
6.297475542E0,7.819738770E-1,3.011737061E-1,9.818981323E0,9.854673154E0
6.307507542E0,7.927514648E-1,2.794688416E-1,9.832453308E0,9.868317778E0
6.317538542E0,7.807763672E-1,2.525248718E-1,9.837542725E0,9.871708434E0
6.327570542E0,7.926017761E-1,2.517764282E-1,9.874515839E0,9.909473850E0
6.337601542E0,8.119116211E-1,2.659968567E-1,9.877958679E0,9.914838500E0
6.347633542E0,8.183482361E-1,2.787203979E-1,9.811945953E0,9.849957476E0
6.357664250E0,8.041278076E-1,3.085084534E-1,9.778415680E0,9.816272827E0
6.367696250E0,8.033793640E-1,3.309617615E-1,9.760902100E0,9.799498145E0
6.377727250E0,8.039781189E-1,2.745291138E-1,9.834698639E0,9.871324347E0
6.387759250E0,8.443940735E-1,2.603086853E-1,9.868977356E0,9.908454774E0
6.397790250E0,8.785231018E-1,2.686912537E-1,9.832153931E0,9.874980949E0
6.407822250E0,8.797206116E-1,2.692900085E-1,9.837542725E0,9.880469236E0
6.417853250E0,8.509803772E-1,3.288661194E-1,9.745783539E0,9.788391968E0
6.427885250E0,8.138575745E-1,3.338058472E-1,9.739945679E0,9.779587533E0
6.437916250E0,8.107141113E-1,3.086581421E-1,9.776469727E0,9.814880923E0
6.447948250E0,8.150550842E-1,3.329077148E-1,9.822274475E0,9.861653928E0
6.457979250E0,8.038284302E-1,3.493734741E-1,9.858948212E0,9.897831167E0
6.468011250E0,8.039781189E-1,3.927832031E-1,9.862391052E0,9.902899410E0
6.478042250E0,7.957452393E-1,4.246669006E-1,9.839638367E0,9.880892452E0
6.488074250E0,7.927514648E-1,4.348457336E-1,9.862391052E0,9.903751964E0
6.498105250E0,7.993377686E-1,4.215234375E-1,9.882599030E0,9.923829223E0
6.508137250E0,7.961943054E-1,3.912863159E-1,9.862540741E0,9.902360336E0
6.518168250E0,7.860154724E-1,3.522175598E-1,9.860894165E0,9.898439840E0
6.528200250E0,7.818241882E-1,3.116519165E-1,9.831555176E0,9.867515044E0
6.538231250E0,7.997868347E-1,2.981799316E-1,9.809101868E0,9.846169291E0
6.548263250E0,8.030799866E-1,2.739303589E-1,9.798773346E0,9.835442765E0
6.558294250E0,8.219407654E-1,2.701881409E-1,9.796078949E0,9.834213290E0
6.568326250E0,8.283773804E-1,2.671943665E-1,9.804611206E0,9.843170364E0
6.578357250E0,8.303233337E-1,2.547702026E-1,9.796827393E0,9.835251479E0
6.588389250E0,8.292755127E-1,2.613565063E-1,9.791887665E0,9.830415512E0
6.598420250E0,8.240364075E-1,2.674937439E-1,9.805359650E0,9.843559659E0
6.608452250E0,8.202941895E-1,2.727328491E-1,9.804611206E0,9.842645308E0
6.618483250E0,8.149053955E-1,2.680924988E-1,9.812544708E0,9.849973505E0
6.628514250E0,7.975415039E-1,2.710862732E-1,9.824669495E0,9.860714523E0
6.638546250E0,8.014334106E-1,2.662962341E-1,9.855205994E0,9.891324197E0
6.648577250E0,8.158035278E-1,3.043171692E-1,9.840087433E0,9.878535571E0
6.658609250E0,8.159532166E-1,3.270698547E-1,9.864037628E0,9.903130448E0
6.668640250E0,8.331674194E-1,3.670367432E-1,9.927505646E0,9.969165074E0
6.678672250E0,8.285270691E-1,4.083508301E-1,9.783056030E0,9.826565666E0
6.688703250E0,8.117619324E-1,3.903881836E-1,9.773925018E0,9.815343633E0
6.698735250E0,8.189469910E-1,3.709286499E-1,9.820627899E0,9.861693291E0
6.708766250E0,8.056246948E-1,3.790118408E-1,9.777367859E0,9.817820704E0
6.718798250E0,7.828720093E-1,3.574566650E-1,9.761201477E0,9.799067207E0
6.728829250E0,7.849676514E-1,3.251239014E-1,9.855205994E0,9.891762479E0
6.738861250E0,8.641529846E-1,3.104544067E-1,9.924362183E0,9.966750075E0
6.748892250E0,9.104067993E-1,3.079096985E-1,9.911339264E0,9.957825813E0
6.758924250E0,9.000782776E-1,3.267704773E-1,9.854756927E0,9.901169322E0
6.768955250E0,8.559201050E-1,3.396437073E-1,9.797875214E0,9.841052575E0
6.778987250E0,7.991880798E-1,3.409909058E-1,9.781110077E0,9.819627830E0
6.789018250E0,7.952961731E-1,3.411405945E-1,9.793085175E0,9.831245605E0
6.799050250E0,8.153544617E-1,3.523672485E-1,9.816286926E0,9.856391561E0
6.809081250E0,8.617579651E-1,3.574566650E-1,9.840686188E0,9.884811920E0
6.819113250E0,8.535250854E-1,3.805087280E-1,9.784852295E0,9.829375687E0
6.829144250E0,8.202941895E-1,3.802093506E-1,9.767338715E0,9.809095130E0
6.839176250E0,8.036787415E-1,3.570075989E-1,9.790989532E0,9.830403347E0
6.849207250E0,8.062234497E-1,3.215313721E-1,9.808952179E0,9.847279905E0
6.859239250E0,8.152047729E-1,3.040177917E-1,9.811796265E0,9.850296015E0
6.869270250E0,8.123606873E-1,2.938389587E-1,9.821975098E0,9.859891786E0
6.879302250E0,7.936495972E-1,2.856060791E-1,9.816137238E0,9.852309414E0
6.889333250E0,7.940986633E-1,2.950364685E-1,9.821975098E0,9.858439736E0
6.899365250E0,8.175997925E-1,3.095562744E-1,9.826316071E0,9.865129600E0
6.909396250E0,8.373587036E-1,2.945874023E-1,9.823172607E0,9.863197829E0
6.919427250E0,8.184979248E-1,3.071612549E-1,9.808203735E0,9.847088270E0
6.929459250E0,8.132588196E-1,3.269201660E-1,9.797875214E0,9.837002867E0
6.939490250E0,7.976911926E-1,3.294648743E-1,9.791887665E0,9.829848543E0
6.949522250E0,8.050259399E-1,3.367996216E-1,9.796228638E0,9.835018875E0
6.959553250E0,8.093669128E-1,3.291654968E-1,9.807904358E0,9.846746296E0
6.969585250E0,8.048762512E-1,3.230282593E-1,9.832453308E0,9.870628708E0
6.979616250E0,8.120613098E-1,3.239263916E-1,9.854158173E0,9.892866378E0
6.989648250E0,8.183482361E-1,3.421884155E-1,9.875563660E0,9.915318671E0
6.999679250E0,8.187973022E-1,3.541635132E-1,9.840686188E0,9.881040707E0
7.009711250E0,8.053253174E-1,3.725752258E-1,9.800569611E0,9.840656780E0
7.019742250E0,7.914042664E-1,3.814068604E-1,9.796378326E0,9.835691141E0
7.029774250E0,7.894583130E-1,3.848497009E-1,9.809550934E0,9.848788923E0
7.039805250E0,8.330177307E-1,3.852987671E-1,9.810748444E0,9.853586083E0
7.049837250E0,8.379574585E-1,3.796105957E-1,9.799970856E0,9.843053677E0
7.059868250E0,8.349636841E-1,3.817062378E-1,9.807904358E0,9.850779253E0
7.069900250E0,8.222401428E-1,3.809577942E-1,9.800868988E0,9.842674464E0
7.079931250E0,8.045768738E-1,3.429368591E-1,9.794132996E0,9.833106873E0
7.089963250E0,8.261320496E-1,3.073109436E-1,9.850715332E0,9.890072130E0
7.099994250E0,8.378077698E-1,2.944377136E-1,9.881401520E0,9.921225298E0
7.110026250E0,8.232879639E-1,3.252735901E-1,9.845027161E0,9.884744092E0
7.120057250E0,7.923023987E-1,3.549119568E-1,9.772278442E0,9.810766104E0
7.130089250E0,7.619155884E-1,3.481759644E-1,9.794132996E0,9.829892319E0
7.140120250E0,7.864645386E-1,3.107537842E-1,9.881700897E0,9.917817653E0
7.150152250E0,8.460406494E-1,2.842588806E-1,9.882000275E0,9.922223406E0
7.160183250E0,8.837622070E-1,2.896476746E-1,9.846524048E0,9.890347175E0
7.170215250E0,8.836125183E-1,2.811154175E-1,9.861492920E0,9.904990640E0
7.180246250E0,8.348139954E-1,3.347039795E-1,9.813891907E0,9.855019813E0
7.190278250E0,7.952961731E-1,3.752696228E-1,9.724827118E0,9.764506427E0
7.200309250E0,7.634124756E-1,3.619473267E-1,9.721234589E0,9.757879196E0
7.210341250E0,7.782316589E-1,3.993695068E-1,9.780511322E0,9.819548983E0
7.220372250E0,7.848179626E-1,4.255650330E-1,9.794132996E0,9.834738734E0
7.230403250E0,7.964936829E-1,4.595443726E-1,9.793234863E0,9.836311926E0
7.240435250E0,8.101153564E-1,4.867877197E-1,9.795480194E0,9.840969536E0
7.250466250E0,8.162525940E-1,4.915777588E-1,9.839488678E0,9.885517409E0
7.260498250E0,8.360115051E-1,4.382885742E-1,9.884245605E0,9.929215644E0
7.270529250E0,8.250842285E-1,3.832031250E-1,9.902208252E0,9.943909537E0
7.280561250E0,8.234376526E-1,3.448828125E-1,9.929002533E0,9.969056376E0
7.290592250E0,8.319699097E-1,3.275189209E-1,9.891131287E0,9.931461157E0
7.300624250E0,7.963439941E-1,2.908451843E-1,9.831854553E0,9.868339203E0
7.310655250E0,7.866142273E-1,2.929408264E-1,9.801467743E0,9.837344468E0
7.320687250E0,7.827223206E-1,2.878514099E-1,9.785900116E0,9.821372294E0
7.330718250E0,7.929011536E-1,2.736309814E-1,9.773326263E0,9.809254427E0
7.340750250E0,7.979905701E-1,2.791694641E-1,9.797426147E0,9.833833619E0
7.350781250E0,7.996371460E-1,2.851570129E-1,9.851463776E0,9.887976163E0
7.360813125E0,8.231382751E-1,2.999761963E-1,9.847871246E0,9.886764406E0
7.370844125E0,8.125103760E-1,3.086581421E-1,9.830657043E0,9.869005060E0
7.380876125E0,8.126600647E-1,3.248245239E-1,9.820029144E0,9.858950236E0
7.390907125E0,8.159532166E-1,3.561094666E-1,9.815987549E0,9.856277450E0
7.400939125E0,8.237370300E-1,3.670367432E-1,9.812993774E0,9.854344498E0
7.410970125E0,8.231382751E-1,3.965254211E-1,9.839039612E0,9.881370832E0
7.421002125E0,8.126600647E-1,4.176315308E-1,9.867480469E0,9.909692391E0
7.431033125E0,8.024812317E-1,4.354444885E-1,9.821975098E0,9.864318671E0
7.441065125E0,7.830216980E-1,4.583468628E-1,9.824819183E0,9.866624388E0
7.451096125E0,7.807763672E-1,4.796026611E-1,9.911788330E0,9.954053363E0
7.461128125E0,7.702981567E-1,4.620890808E-1,9.799521790E0,9.840605310E0
7.471159125E0,7.514373779E-1,4.349954224E-1,9.748777313E0,9.787366257E0
7.481191125E0,7.472460938E-1,4.013154602E-1,9.748477936E0,9.785308012E0
7.491222125E0,7.487429810E-1,3.571572876E-1,9.781708832E0,9.816822554E0
7.501254125E0,7.664062500E-1,2.993774414E-1,9.839788055E0,9.874129550E0
7.511285125E0,7.999365234E-1,2.806663513E-1,9.860744476E0,9.897118453E0
7.521317125E0,8.255332947E-1,2.689906311E-1,9.875713348E0,9.913807307E0
7.531348125E0,8.623567200E-1,2.815644836E-1,9.870474243E0,9.912073419E0
7.541379125E0,8.560697937E-1,2.930905151E-1,9.861043854E0,9.902471582E0
7.551411125E0,8.464897156E-1,3.270698547E-1,9.804012451E0,9.845921982E0
7.561442125E0,7.961943054E-1,3.402424622E-1,9.745933228E0,9.784319331E0
7.571474125E0,7.384144592E-1,3.514691162E-1,9.766141205E0,9.800321448E0
7.581505125E0,7.418572998E-1,3.617976379E-1,9.814939728E0,9.849583323E0
7.591537125E0,7.753875732E-1,3.442840576E-1,9.861043854E0,9.897471560E0
7.601568125E0,7.984396362E-1,3.553610229E-1,9.815089417E0,9.853921431E0
7.611600125E0,7.830216980E-1,3.802093506E-1,9.791288910E0,9.829904407E0
7.621631125E0,7.647596741E-1,3.683839417E-1,9.820927277E0,9.857544150E0
7.631663125E0,7.411088562E-1,3.782633972E-1,9.815089417E0,9.850294706E0
7.641694125E0,7.464976501E-1,3.778143311E-1,9.806706848E0,9.842332123E0
7.651726125E0,7.484436035E-1,3.534150696E-1,9.809550934E0,9.844407527E0
7.661757125E0,7.508386230E-1,3.564088440E-1,9.823771362E0,9.858867566E0
7.671789125E0,7.571255493E-1,3.532653809E-1,9.842632141E0,9.878028295E0
7.681820125E0,7.797285461E-1,3.399430847E-1,9.841135254E0,9.877827747E0
7.691852125E0,7.864645386E-1,3.414399719E-1,9.851463776E0,9.888702961E0
7.701883125E0,7.586224365E-1,3.365002441E-1,9.869875488E0,9.904705072E0
7.711915125E0,7.497908020E-1,3.426374817E-1,9.854607239E0,9.889027784E0
7.721946125E0,7.439529419E-1,3.384461975E-1,9.817334747E0,9.851298054E0
7.731978125E0,7.168592834E-1,3.481759644E-1,9.820328522E0,9.852612141E0
7.742009125E0,7.087760925E-1,3.516188049E-1,9.787097626E0,9.819026391E0
7.752041125E0,7.119195557E-1,3.580554199E-1,9.770631866E0,9.803075038E0
7.762072125E0,7.276368713E-1,3.588038635E-1,9.779613190E0,9.813206905E0
7.772104125E0,7.478448486E-1,3.460803223E-1,9.808652802E0,9.843206454E0
7.782135125E0,7.580236816E-1,3.269201660E-1,9.809700623E0,9.844374180E0
7.792167125E0,7.574249268E-1,3.194357300E-1,9.837243347E0,9.871529181E0
7.802198125E0,7.418572998E-1,3.076103210E-1,9.870324554E0,9.902943157E0
7.812230125E0,7.557783508E-1,3.112028503E-1,9.865085449E0,9.898886758E0
7.822261125E0,7.357200623E-1,2.938389587E-1,9.847272491E0,9.879089071E0
7.832292125E0,7.264393616E-1,2.956352234E-1,9.823172607E0,9.854432221E0
7.842324125E0,7.261399841E-1,2.893482971E-1,9.822124786E0,9.853179032E0
7.852355125E0,7.267387390E-1,2.915936279E-1,9.791139221E0,9.822402114E0
7.862387125E0,7.195536804E-1,2.915936279E-1,9.765093384E0,9.795909000E0
7.872418125E0,7.231462097E-1,2.878514099E-1,9.788594513E0,9.819489875E0
7.882450125E0,7.206015015E-1,2.785707092E-1,9.769733734E0,9.800232926E0
7.892481125E0,7.113208008E-1,2.782713318E-1,9.808652802E0,9.838347524E0
7.902513125E0,7.249424744E-1,2.517764282E-1,9.897717590E0,9.927423959E0
7.912544125E0,7.493417358E-1,2.594105530E-1,9.949659576E0,9.981208973E0
7.922576125E0,7.526348877E-1,2.740800476E-1,9.930349731E0,9.962601314E0
7.932607125E0,6.963519287E-1,2.962339783E-1,9.892777863E0,9.921679012E0
7.942639125E0,6.583309937E-1,2.891986084E-1,9.854756927E0,9.880954895E0
7.952670125E0,6.462062073E-1,2.888992310E-1,9.840237122E0,9.865663274E0
7.962702125E0,6.622229004E-1,3.017724609E-1,9.870474243E0,9.897265661E0
7.972733125E0,6.797364807E-1,3.388952637E-1,9.804012451E0,9.833389641E0
7.982765125E0,6.512956238E-1,3.848497009E-1,9.703571320E0,9.733015547E0
7.992796125E0,6.442602539E-1,3.767665100E-1,9.761500854E0,9.789990971E0
8.002828125E0,6.938072205E-1,3.586541748E-1,9.838889923E0,9.869840738E0
8.012859125E0,7.466473389E-1,3.384461975E-1,9.885592804E0,9.919524846E0
8.022891125E0,7.774832153E-1,3.224295044E-1,9.831405487E0,9.867369193E0
8.032922125E0,7.393125916E-1,3.052153015E-1,9.779463501E0,9.812117297E0
8.042954125E0,7.132667542E-1,2.303709412E-1,9.799821167E0,9.828444187E0
8.052985125E0,7.125183105E-1,1.706451416E-1,9.845176849E0,9.872401395E0
8.063017125E0,7.518864441E-1,1.390608215E-1,9.898016968E0,9.927507796E0
8.073048125E0,7.780819702E-1,1.457968140E-1,9.926308136E0,9.957824134E0
8.083080125E0,7.527845764E-1,1.986369324E-1,9.871522064E0,9.902175979E0
8.093111125E0,7.069798279E-1,2.865042114E-1,9.790540466E0,9.820213224E0
8.103143125E0,6.494993591E-1,3.417393494E-1,9.739795990E0,9.767408107E0
8.113174125E0,6.487509155E-1,3.701802063E-1,9.779014435E0,9.807498889E0
8.123206125E0,6.803352356E-1,3.802093506E-1,9.849966888E0,9.880752142E0
8.133237125E0,7.029382324E-1,3.616479492E-1,9.902507629E0,9.934010708E0
8.143268125E0,6.971003723E-1,3.481759644E-1,9.930200043E0,9.960725291E0
8.153300125E0,6.963519287E-1,3.367996216E-1,9.932445374E0,9.962520318E0
8.163331125E0,7.126679993E-1,3.179388428E-1,9.911339264E0,9.942013216E0
8.173363125E0,6.963519287E-1,3.103047180E-1,9.846823425E0,9.876291136E0
8.183394125E0,6.888674927E-1,2.990780640E-1,9.824968872E0,9.853628745E0
8.193426125E0,7.087760925E-1,2.972817993E-1,9.810748444E0,9.840809166E0
8.203457125E0,6.994953918E-1,2.674937439E-1,9.797426147E0,9.826006606E0
8.213489125E0,7.050338745E-1,2.429447937E-1,9.814191284E0,9.842481674E0
8.223520125E0,7.021897888E-1,2.251318359E-1,9.809700623E0,9.837376741E0
8.233552125E0,7.044351196E-1,1.983375549E-1,9.825118561E0,9.852335833E0
8.243583125E0,7.138655090E-1,1.703457642E-1,9.874366150E0,9.901602320E0
8.253615125E0,7.442523193E-1,1.737886047E-1,9.905651093E0,9.935091221E0
8.263646125E0,7.623646545E-1,1.836680603E-1,9.913135529E0,9.944103269E0
8.273678125E0,7.798782349E-1,2.189945984E-1,9.940079498E0,9.973031090E0
8.283709125E0,7.815248108E-1,2.679428101E-1,9.934990082E0,9.969282938E0
8.293741125E0,7.668553162E-1,2.939886475E-1,9.862540741E0,9.896676526E0
8.303772125E0,7.173083496E-1,3.306623840E-1,9.730215912E0,9.762221600E0
8.313804125E0,6.761439514E-1,3.646417236E-1,9.762698364E0,9.792875654E0
8.323835125E0,6.599775696E-1,3.761677551E-1,9.736802216E0,9.766390836E0
8.333867125E0,6.598278809E-1,3.891906738E-1,9.711055756E0,9.741224056E0
8.343898125E0,7.131170654E-1,3.532653809E-1,9.787247314E0,9.819548990E0
8.353930125E0,7.599696350E-1,3.095562744E-1,9.867630157E0,9.901691969E0
8.363961125E0,8.042774963E-1,2.689906311E-1,9.903405762E0,9.939651097E0
8.373993125E0,8.084687805E-1,2.537223816E-1,9.899214478E0,9.935413634E0
8.384024125E0,7.701484680E-1,2.231858826E-1,9.898466034E0,9.930889710E0
8.394056125E0,7.469467163E-1,2.059716797E-1,9.894574127E0,9.924865283E0
8.404087125E0,7.716453552E-1,1.975891113E-1,9.841434631E0,9.873617048E0
8.414119125E0,7.563771057E-1,1.862127686E-1,9.827513580E0,9.858336812E0
8.424150125E0,7.442523193E-1,1.725910950E-1,9.807305603E0,9.837018979E0
8.434181125E0,7.388635254E-1,1.767823792E-1,9.847571869E0,9.876833654E0
8.444213125E0,7.481442261E-1,1.998344421E-1,9.854607239E0,9.884985454E0
8.454244125E0,7.511380005E-1,2.013313293E-1,9.860445099E0,9.891062640E0
8.464276125E0,7.542814636E-1,2.210902405E-1,9.871821442E0,9.903064172E0
8.474307125E0,7.506889343E-1,2.490820312E-1,9.872420197E0,9.904052518E0
8.484339125E0,7.496411133E-1,2.576142883E-1,9.842183075E0,9.874051580E0
8.494370125E0,7.469467163E-1,2.718347168E-1,9.834998016E0,9.867066914E0
8.504402125E0,7.324269104E-1,2.740800476E-1,9.811646576E0,9.842762701E0
8.514433125E0,7.075785828E-1,2.610571289E-1,9.800419922E0,9.829397180E0
8.524465125E0,6.990463257E-1,2.523751831E-1,9.795779572E0,9.823932838E0
8.534496125E0,7.005432129E-1,2.387535095E-1,9.793085175E0,9.821012232E0
8.544528125E0,7.144642639E-1,2.462379456E-1,9.804162140E0,9.833244001E0
8.554559125E0,7.201524353E-1,2.613565063E-1,9.817334747E0,9.847181744E0
8.564591125E0,7.192543030E-1,2.444416809E-1,9.830357666E0,9.859665833E0
8.574622125E0,7.292834473E-1,2.369572449E-1,9.855505371E0,9.885291559E0
8.584654125E0,7.174580383E-1,2.281256104E-1,9.879006500E0,9.907651425E0
8.594685125E0,7.162605286E-1,2.207908630E-1,9.891580353E0,9.919936473E0
8.604717125E0,7.056326294E-1,2.261796570E-1,9.886041870E0,9.913773172E0
8.614748125E0,7.077282715E-1,2.332150269E-1,9.865384827E0,9.893487066E0
8.624780125E0,7.138655090E-1,2.457888794E-1,9.880204010E0,9.909008397E0
8.634811125E0,7.030879211E-1,2.698887634E-1,9.853260040E0,9.881999089E0
8.644843125E0,7.006929016E-1,2.893482971E-1,9.849368134E0,9.878499158E0
8.654874125E0,7.125183105E-1,2.704875183E-1,9.844727783E0,9.874184066E0
8.664906125E0,7.170089722E-1,2.517764282E-1,9.853858795E0,9.883118252E0
8.674937125E0,7.162605286E-1,2.501298523E-1,9.845476227E0,9.874664360E0
8.684969125E0,7.375163269E-1,2.459385681E-1,9.831555176E0,9.862245854E0
8.695000125E0,7.364685059E-1,2.420466614E-1,9.834848328E0,9.865354230E0
8.705032125E0,7.318281555E-1,2.459385681E-1,9.814340973E0,9.844660835E0
8.715063125E0,7.339237976E-1,2.525248718E-1,9.769584045E0,9.800366594E0
8.725095125E0,7.342231750E-1,2.451901245E-1,9.736353149E0,9.767076048E0
8.735126125E0,7.400610352E-1,2.299218750E-1,9.765542450E0,9.796242838E0
8.745157125E0,7.288343811E-1,2.177970886E-1,9.777816925E0,9.807361467E0
8.755189125E0,7.277865601E-1,2.107617188E-1,9.812395020E0,9.841605042E0
8.765220125E0,7.194039917E-1,1.938468933E-1,9.844578094E0,9.872731971E0
8.775252125E0,7.045848083E-1,1.603166199E-1,9.883497162E0,9.909876756E0
8.785283125E0,6.818321228E-1,1.508862305E-1,9.916728058E0,9.941285484E0
8.795315125E0,6.616241455E-1,1.451980591E-1,9.898466034E0,9.921615736E0
8.805346125E0,6.493496704E-1,1.648072815E-1,9.886341248E0,9.909014063E0
8.815378125E0,6.258485413E-1,1.847158813E-1,9.899663544E0,9.921146337E0
8.825409125E0,6.393205261E-1,1.905537415E-1,9.903555450E0,9.925998792E0
8.835441125E0,6.584806824E-1,2.194436646E-1,9.864636383E0,9.889024386E0
8.845472125E0,6.616241455E-1,2.360591125E-1,9.842482452E0,9.867519001E0
8.855504125E0,6.366261292E-1,2.472857666E-1,9.828112335E0,9.851813800E0
8.865535125E0,6.219566345E-1,2.308200073E-1,9.804162140E0,9.826581460E0
8.875567125E0,6.248007202E-1,2.001338196E-1,9.850415955E0,9.872240068E0
8.885598125E0,6.556365967E-1,1.965412903E-1,9.889784088E0,9.913441236E0
8.895630125E0,6.586303711E-1,2.133064270E-1,9.842931519E0,9.867248577E0
8.905661125E0,6.489006042E-1,2.203417969E-1,9.813143463E0,9.837042601E0
8.915693125E0,6.478527832E-1,1.823208618E-1,9.879605255E0,9.902502417E0
8.925724125E0,6.872209167E-1,1.514849854E-1,9.958191833E0,9.983025838E0
8.935756125E0,7.250921631E-1,1.824705505E-1,9.905351715E0,9.933531434E0
8.945787125E0,6.912625122E-1,1.920506287E-1,9.841135254E0,9.867252424E0
8.955819125E0,6.451583862E-1,1.871109009E-1,9.783804474E0,9.806837911E0
8.965850125E0,6.117778015E-1,1.549278259E-1,9.764494629E0,9.784867402E0
8.975882125E0,6.306385803E-1,1.254391479E-1,9.802665253E0,9.823730761E0
8.985913125E0,6.827302551E-1,1.154100037E-1,9.853858795E0,9.878156368E0
8.995945125E0,7.143145752E-1,1.306782532E-1,9.902807007E0,9.929396192E0
9.005976125E0,7.159611511E-1,1.752854919E-1,9.874515839E0,9.901989114E0
9.016008125E0,6.978488159E-1,2.552192688E-1,9.816137238E0,9.844220645E0
9.026039125E0,6.789880371E-1,2.865042114E-1,9.800569611E0,9.828238607E0
9.036071125E0,6.929090881E-1,2.915936279E-1,9.835596771E0,9.864284753E0
9.046102125E0,7.083270264E-1,3.055146790E-1,9.845326538E0,9.875501052E0
9.056133125E0,6.873706055E-1,2.784210205E-1,9.873318329E0,9.901131826E0
9.066165125E0,6.833290100E-1,2.577639771E-1,9.899663544E0,9.926566329E0
9.076196125E0,6.725514221E-1,2.323168945E-1,9.884245605E0,9.909823800E0
9.086228125E0,6.727011108E-1,2.070195007E-1,9.868827667E0,9.893894248E0
9.096259125E0,6.730004883E-1,1.992356873E-1,9.845775604E0,9.870760952E0
9.106291125E0,6.557862854E-1,2.001338196E-1,9.827663269E0,9.851551884E0
9.116322125E0,6.601272583E-1,1.790277100E-1,9.812993774E0,9.836801601E0
9.126354125E0,6.722520447E-1,1.689985657E-1,9.802365875E0,9.826843851E0
9.136385125E0,6.755451965E-1,1.451980591E-1,9.819879456E0,9.844159503E0
9.146417125E0,6.797364807E-1,1.416055298E-1,9.846074982E0,9.870526144E0
9.156448125E0,6.789880371E-1,1.333726501E-1,9.857900391E0,9.882156300E0
9.166480125E0,6.921606445E-1,1.182540894E-1,9.838590546E0,9.863616695E0
9.176511125E0,6.972500610E-1,1.441502380E-1,9.838141479E0,9.863871690E0
9.186543125E0,6.954537964E-1,1.802252197E-1,9.848919067E0,9.875087033E0
9.196574125E0,6.779402161E-1,2.106120300E-1,9.831555176E0,9.857151594E0
9.206606125E0,6.737489319E-1,2.432441711E-1,9.819580078E0,9.845672057E0
9.216637125E0,6.644682312E-1,2.833607483E-1,9.779613190E0,9.806255426E0
9.226669125E0,6.462062073E-1,3.017724609E-1,9.746382294E0,9.772441706E0
9.236700125E0,6.367758179E-1,2.776725769E-1,9.857002258E0,9.881451261E0
9.246732125E0,6.348298645E-1,2.612068176E-1,9.806706848E0,9.830703798E0
9.256763125E0,6.179150391E-1,2.612068176E-1,9.776918793E0,9.799907606E0
9.266795125E0,6.230044556E-1,2.029779053E-1,9.833650818E0,9.855456508E0
9.276826125E0,6.692582703E-1,1.595681763E-1,9.915979614E0,9.939819935E0
9.286858125E0,7.053332520E-1,1.234931946E-1,9.941726074E0,9.967480268E0
9.296889125E0,7.054829407E-1,9.415420532E-2,9.936636658E0,9.962094120E0
9.306921125E0,6.867718506E-1,9.520202637E-2,9.902357941E0,9.926601220E0
9.316952125E0,6.730004883E-1,1.184037781E-1,9.870923309E0,9.894547796E0
9.326983125E0,6.712042236E-1,1.459465027E-1,9.852661285E0,9.876575818E0
9.337015125E0,6.893165588E-1,1.645079041E-1,9.820927277E0,9.846462956E0
9.347047125E0,6.840774536E-1,1.913021851E-1,9.802066498E0,9.827770150E0
9.357078125E0,6.649172974E-1,2.124082947E-1,9.791139221E0,9.815988974E0
9.367109125E0,6.544390869E-1,2.212399292E-1,9.788893890E0,9.813240098E0
9.377141125E0,6.453080750E-1,2.071691895E-1,9.808952179E0,9.832338706E0
9.387172125E0,6.496490479E-1,1.951940918E-1,9.846823425E0,9.870160900E0
9.397204125E0,6.607260132E-1,1.669029236E-1,9.871821442E0,9.895315762E0
9.407235125E0,6.638694763E-1,1.594184875E-1,9.879605255E0,9.903168025E0
9.417267125E0,6.295907593E-1,1.523831177E-1,9.878557434E0,9.899772832E0
9.427298125E0,6.432124329E-1,1.422042847E-1,9.867779846E0,9.889743343E0
9.437330125E0,6.405180359E-1,1.384620667E-1,9.847871246E0,9.869650611E0
9.447361125E0,6.403683472E-1,1.323248291E-1,9.839937744E0,9.861640649E0
9.457393125E0,6.403683472E-1,1.351689148E-1,9.834848328E0,9.856601031E0
9.467424125E0,6.474037170E-1,1.353186035E-1,9.852960663E0,9.875134253E0
9.477456125E0,6.631210327E-1,1.441502380E-1,9.861193542E0,9.884515511E0
9.487487125E0,6.950047302E-1,1.504371643E-1,9.862840118E0,9.888441642E0
9.497519125E0,6.728507996E-1,1.657054138E-1,9.878707123E0,9.902981415E0
9.507550125E0,6.563850403E-1,1.947450256E-1,9.866133270E0,9.889861104E0
9.517582125E0,6.385720825E-1,2.044747925E-1,9.837393036E0,9.860217340E0
9.527613125E0,6.325845337E-1,2.130070496E-1,9.812395020E0,9.835071490E0
9.537645125E0,6.024971008E-1,2.086660767E-1,9.808952179E0,9.829653460E0
9.547676125E0,6.018983459E-1,1.884580994E-1,9.815538483E0,9.835781300E0
9.557708125E0,6.197113037E-1,1.751358032E-1,9.833201752E0,9.854266657E0
9.567739125E0,6.378236389E-1,1.499880981E-1,9.849368134E0,9.871138134E0
9.577771125E0,6.554869080E-1,1.437011719E-1,9.850415955E0,9.873247064E0
9.587802125E0,6.719526672E-1,1.386117554E-1,9.865684204E0,9.889512547E0
9.597834125E0,6.770420837E-1,1.234931946E-1,9.855655060E0,9.879654509E0
9.607865125E0,6.821315002E-1,1.285826111E-1,9.844278717E0,9.868721312E0
9.617897125E0,7.009922791E-1,1.429527283E-1,9.843230896E0,9.869195516E0
9.627928125E0,7.023394775E-1,1.402583313E-1,9.846224670E0,9.872238520E0
9.637959125E0,6.962022400E-1,1.296304321E-1,9.857002258E0,9.882408367E0
9.647991125E0,6.933581543E-1,1.492396545E-1,9.874665527E0,9.900102892E0
9.658023125E0,6.824308777E-1,1.660047913E-1,9.852511597E0,9.877512554E0
9.668054125E0,6.598278809E-1,1.806742859E-1,9.836644592E0,9.860405309E0
9.678085125E0,6.164181519E-1,1.869612122E-1,9.838590546E0,9.859654647E0
9.688117125E0,6.346801758E-1,2.053729248E-1,9.870025177E0,9.892542340E0
9.698148125E0,6.550378418E-1,2.302212524E-1,9.845176849E0,9.869629354E0
9.708180125E0,6.462062073E-1,2.523751831E-1,9.820029144E0,9.844503446E0
9.718211125E0,6.218069458E-1,2.439926147E-1,9.807455292E0,9.830175765E0
9.728243125E0,6.117778015E-1,2.294728088E-1,9.810898132E0,9.832631998E0
9.738274125E0,6.057902527E-1,1.981878662E-1,9.836195526E0,9.856825183E0
9.748306125E0,6.262976074E-1,1.618135071E-1,9.858798523E0,9.879996995E0
9.758337125E0,6.439608765E-1,1.404080200E-1,9.860145721E0,9.882149243E0
9.768369125E0,6.304888916E-1,1.287322998E-1,9.821825409E0,9.842882840E0
9.778400125E0,6.427633667E-1,1.384620667E-1,9.820478210E0,9.842464568E0
9.788432125E0,6.887178040E-1,1.330732727E-1,9.896370392E0,9.921198901E0
9.798463125E0,7.264393616E-1,1.101708984E-1,9.901010742E0,9.928235769E0
9.808495125E0,7.415579224E-1,1.246907043E-1,9.863887939E0,9.892509348E0
9.818526125E0,7.069798279E-1,1.115180969E-1,9.859097900E0,9.885042649E0
9.828558125E0,6.800358582E-1,1.149609375E-1,9.804760895E0,9.828987791E0
9.838589125E0,6.836283875E-1,8.008346558E-2,9.796827393E0,9.820976942E0
9.848621125E0,6.851252747E-1,7.664062500E-2,9.835147705E0,9.859279934E0
9.858652125E0,7.149133301E-1,1.011895752E-1,9.885143738E0,9.911478553E0
9.868684125E0,7.047344971E-1,1.474433899E-1,9.853409729E0,9.879679830E0
9.878715125E0,6.822811890E-1,2.365081787E-1,9.788594513E0,9.815193644E0
9.888747125E0,6.405180359E-1,2.797682190E-1,9.758956146E0,9.783954143E0
9.898778125E0,6.261479187E-1,2.993774414E-1,9.788295135E0,9.812869597E0
9.908810125E0,6.319857788E-1,2.827619934E-1,9.846374359E0,9.870686318E0
9.918841125E0,6.409671021E-1,2.740800476E-1,9.873617706E0,9.898196063E0
9.928873125E0,6.474037170E-1,2.359094238E-1,9.889185333E0,9.913161523E0
9.938904125E0,6.396199036E-1,2.052232361E-1,9.912536774E0,9.935271284E0
9.948936125E0,6.408174133E-1,1.651066589E-1,9.894723816E0,9.916827444E0
9.958967125E0,6.445596313E-1,1.410067749E-1,9.876910858E0,9.898924595E0
9.968998125E0,6.499484253E-1,1.419049072E-1,9.856852570E0,9.879276924E0
9.979030125E0,6.686595154E-1,1.255888367E-1,9.824370117E0,9.847899588E0
9.989061125E0,6.833290100E-1,1.228944397E-1,9.828411713E0,9.852904058E0
9.999093125E0,6.852749634E-1,1.306782532E-1,9.806108093E0,9.830891848E0
1.000912413E1,7.087760925E-1,1.110690308E-1,9.812095642E0,9.838288508E0
1.001915613E1,7.125183105E-1,1.178050232E-1,9.833351440E0,9.859835745E0
1.002918713E1,7.162605286E-1,1.227447510E-1,9.849218445E0,9.875991059E0
1.003921912E1,7.289840698E-1,1.402583313E-1,9.862690430E0,9.890589097E0
1.004925013E1,7.318281555E-1,1.567240906E-1,9.875413971E0,9.903733437E0
1.005928213E1,7.104226685E-1,1.725910950E-1,9.866133270E0,9.893183197E0
1.006931313E1,7.002438354E-1,2.035766602E-1,9.877359924E0,9.904242725E0
1.007934513E1,6.694079590E-1,2.177970886E-1,9.843380585E0,9.868519845E0
1.008937613E1,6.472540283E-1,2.495310974E-1,9.822274475E0,9.846739532E0
1.009940813E1,6.268963623E-1,2.677931213E-1,9.861792297E0,9.885325464E0
1.010943913E1,6.086343384E-1,2.751278687E-1,9.817783813E0,9.840478144E0
1.011947113E1,5.966592407E-1,2.597099304E-1,9.804611206E0,9.826181985E0
1.012950213E1,6.029461670E-1,2.140548706E-1,9.818981323E0,9.839804764E0
1.013953413E1,6.261479187E-1,1.796264648E-1,9.852212219E0,9.873723335E0
1.014956513E1,6.619235229E-1,1.451980591E-1,9.874216461E0,9.897442900E0
1.015959713E1,6.941065979E-1,1.245410156E-1,9.894723816E0,9.919821260E0
1.016962813E1,7.111711121E-1,1.260379028E-1,9.873767395E0,9.900148104E0
1.017966013E1,7.262896729E-1,1.341210938E-1,9.835896149E0,9.863586478E0
1.018969113E1,7.258406067E-1,1.372645569E-1,9.836794281E0,9.864492276E0
1.019972313E1,7.176077271E-1,1.517843628E-1,9.844428406E0,9.871715655E0
1.020975413E1,7.063810730E-1,1.669029236E-1,9.817783813E0,9.844577686E0
1.021978613E1,6.830296326E-1,1.658551025E-1,9.817933502E0,9.843061295E0
1.022981713E1,6.741979980E-1,1.956431580E-1,9.833052063E0,9.858079532E0
1.023984913E1,6.789880371E-1,1.987866211E-1,9.865085449E0,9.890422225E0
1.024988013E1,6.741979980E-1,1.911524963E-1,9.885143738E0,9.909952015E0
1.025991213E1,6.680607605E-1,2.065704346E-1,9.871072998E0,9.895810157E0
1.026994313E1,6.641688538E-1,2.031275940E-1,9.862840118E0,9.887264348E0
1.027997413E1,6.382727051E-1,1.941462708E-1,9.867330780E0,9.889858520E0
1.029000612E1,6.535409546E-1,1.926493835E-1,9.862690430E0,9.886197048E0
1.030003713E1,6.538403320E-1,1.954934692E-1,9.833950195E0,9.857601195E0
1.031006913E1,6.625222778E-1,1.872605896E-1,9.801916809E0,9.826066122E0
1.032010013E1,6.459068298E-1,1.740879822E-1,9.803264008E0,9.826061645E0
1.033013213E1,6.625222778E-1,1.772314453E-1,9.827363892E0,9.851265290E0
1.034016313E1,6.750961304E-1,1.636097717E-1,9.830207977E0,9.854720281E0
1.035019513E1,6.849755859E-1,1.664538574E-1,9.831704865E0,9.856942679E0
1.036022575E1,6.764433289E-1,1.643582153E-1,9.836195526E0,9.860797718E0
1.037025775E1,6.734495544E-1,1.707948303E-1,9.843979340E0,9.868466670E0
1.038028875E1,6.622229004E-1,1.505868530E-1,9.839189301E0,9.862599133E0
1.039032075E1,6.477030945E-1,1.507365417E-1,9.842482452E0,9.864922789E0
1.040035175E1,6.424639893E-1,1.558259583E-1,9.844428406E0,9.866600850E0
1.041038375E1,6.493496704E-1,1.532812500E-1,9.859696655E0,9.882245103E0
1.042041475E1,6.598278809E-1,1.627116394E-1,9.861043854E0,9.884433914E0
1.043044675E1,6.580316162E-1,1.779798889E-1,9.862391052E0,9.885921288E0
1.044047775E1,6.656657410E-1,1.766326904E-1,9.856253815E0,9.880285889E0
1.045050975E1,6.694079590E-1,1.742376709E-1,9.845775604E0,9.870043720E0
1.046054075E1,6.747967529E-1,1.833686829E-1,9.834249573E0,9.859079034E0
1.047057275E1,6.858737183E-1,1.734892273E-1,9.842781830E0,9.868174878E0
1.048060375E1,6.933581543E-1,1.836680603E-1,9.829010468E0,9.855147196E0
1.049063575E1,6.818321228E-1,1.808239746E-1,9.805060272E0,9.830401787E0
1.050066675E1,6.646179199E-1,1.939965820E-1,9.794282684E0,9.818723183E0
1.051069875E1,6.779402161E-1,1.851649475E-1,9.824070740E0,9.849175341E0
1.052072975E1,7.056326294E-1,1.787283325E-1,9.849517822E0,9.876379020E0
1.053076175E1,7.108717346E-1,1.881587219E-1,9.841135254E0,9.868570586E0
1.054079275E1,6.882687378E-1,2.103126526E-1,9.831555176E0,9.857860947E0
1.055082475E1,6.653663635E-1,2.194436646E-1,9.837842102E0,9.862758496E0
1.056085575E1,6.601272583E-1,1.836680603E-1,9.835896149E0,9.859734023E0
1.057088675E1,6.536906433E-1,1.710942078E-1,9.861043854E0,9.884167672E0
1.058091875E1,6.511459351E-1,1.437011719E-1,9.880353699E0,9.902829407E0
1.059094975E1,6.408174133E-1,1.468446350E-1,9.830657043E0,9.852615298E0
1.060098175E1,6.274951172E-1,1.655557251E-1,9.812544708E0,9.833981517E0
1.061101275E1,6.427633667E-1,1.493893433E-1,9.884395294E0,9.906398551E0
1.062104475E1,6.893165588E-1,1.528321838E-1,9.908046112E0,9.933171334E0
1.063107575E1,7.120692444E-1,1.754351807E-1,9.878407745E0,9.905592344E0
1.064110775E1,6.863227844E-1,1.625619507E-1,9.835297394E0,9.860554760E0
1.065113875E1,6.590794373E-1,1.369651794E-1,9.820029144E0,9.843074599E0
1.066117075E1,6.553372192E-1,9.714797974E-2,9.793234863E0,9.815617845E0
1.067120175E1,6.770420837E-1,5.493576050E-2,9.812544708E0,9.836027530E0
1.068123375E1,7.159611511E-1,5.059478760E-2,9.872120819E0,9.898178098E0
1.069126475E1,7.448510742E-1,1.076261902E-1,9.880503387E0,9.909123761E0
1.070129675E1,7.375163269E-1,1.776805115E-1,9.833950195E0,9.863167703E0
1.071132775E1,6.896159363E-1,2.409988403E-1,9.784552917E0,9.811785076E0
1.072135975E1,6.816824341E-1,2.812651062E-1,9.792037354E0,9.819765605E0
1.073139075E1,6.758445740E-1,2.959346008E-1,9.844278717E0,9.871887694E0
1.074142275E1,6.956034851E-1,2.893482971E-1,9.856403503E0,9.885154357E0
1.075145375E1,6.727011108E-1,2.679428101E-1,9.881401520E0,9.907896655E0
1.076148575E1,6.569837952E-1,2.432441711E-1,9.882748718E0,9.907548519E0
1.077151675E1,6.454577637E-1,2.158511353E-1,9.890532532E0,9.913921585E0
1.078154875E1,6.378236389E-1,1.803749084E-1,9.867779846E0,9.890016845E0
1.079157975E1,6.393205261E-1,1.689985657E-1,9.844129028E0,9.866314792E0
1.080161175E1,6.515950012E-1,1.580712891E-1,9.825567627E0,9.848418237E0
1.081164275E1,6.656657410E-1,1.484912109E-1,9.836045837E0,9.859663191E0
1.082167475E1,6.909631348E-1,1.285826111E-1,9.820927277E0,9.846043678E0
1.083170575E1,7.029382324E-1,1.312770081E-1,9.823172607E0,9.849166253E0
1.084173775E1,6.959028625E-1,1.224453735E-1,9.838590546E0,9.863931143E0
1.085176875E1,7.128176880E-1,1.154100037E-1,9.853409729E0,9.879833592E0
1.086180075E1,7.081773376E-1,1.404080200E-1,9.846524048E0,9.872956263E0
1.087183175E1,7.213499451E-1,1.559756470E-1,9.839488678E0,9.867127829E0
1.088186375E1,7.297325134E-1,1.814227295E-1,9.845476227E0,9.874149375E0
1.089189475E1,7.210505676E-1,2.145039368E-1,9.849218445E0,9.877906146E0
1.090192575E1,6.991960144E-1,2.484832764E-1,9.838141479E0,9.866085687E0
1.091195775E1,6.786886597E-1,2.881507874E-1,9.806557159E0,9.834236752E0
1.092198875E1,6.508465576E-1,2.914439392E-1,9.865534515E0,9.891274543E0
1.093202075E1,6.352789307E-1,3.016227722E-1,9.801018677E0,9.826216094E0
1.094205175E1,6.237528992E-1,2.926414490E-1,9.793085175E0,9.817292088E0
1.095208375E1,6.417155457E-1,2.272274780E-1,9.827812958E0,9.851362276E0
1.096211475E1,6.613247681E-1,1.975891113E-1,9.867031403E0,9.891142533E0
1.097214675E1,6.887178040E-1,1.519340515E-1,9.883946228E0,9.909077112E0
1.098217775E1,6.902146912E-1,1.202000427E-1,9.891580353E0,9.916360534E0
1.099220975E1,7.194039917E-1,1.055305481E-1,9.892478485E0,9.919163744E0
1.100224075E1,7.306306458E-1,1.028361511E-1,9.885742493E0,9.913238676E0
1.101227275E1,7.397616577E-1,1.315763855E-1,9.863139496E0,9.891717766E0
1.102230375E1,7.258406067E-1,1.522334290E-1,9.857451324E0,9.885310628E0
1.103233575E1,6.973997498E-1,1.694476318E-1,9.841434631E0,9.867568825E0
1.104236675E1,7.014413452E-1,1.986369324E-1,9.811197510E0,9.838245431E0
1.105239875E1,6.833290100E-1,2.234852600E-1,9.812544708E0,9.838847384E0
1.106242975E1,6.698570251E-1,2.174977112E-1,9.815688171E0,9.840922110E0
1.107246175E1,6.891668701E-1,2.380050659E-1,9.817634125E0,9.844670497E0
1.108249275E1,6.935078430E-1,2.442919922E-1,9.822124786E0,9.849607455E0
1.109252475E1,6.713539124E-1,2.466870117E-1,9.813143463E0,9.839174517E0
1.110255575E1,6.629713440E-1,2.353106689E-1,9.827214203E0,9.852362209E0
1.111258775E1,6.704557800E-1,2.035766602E-1,9.837393036E0,9.862314949E0
1.112261875E1,6.602769470E-1,1.902543640E-1,9.830806732E0,9.854791899E0
1.113265075E1,6.580316162E-1,1.672023010E-1,9.850565643E0,9.873935675E0
1.114268175E1,6.524931335E-1,1.609153748E-1,9.849068756E0,9.871970240E0
1.115271375E1,6.725514221E-1,1.438508606E-1,9.846074982E0,9.870066415E0
1.116274475E1,6.848258972E-1,1.616638184E-1,9.850715332E0,9.875814612E0
1.117277675E1,6.918612671E-1,1.675016785E-1,9.859996033E0,9.885658834E0
1.118280775E1,6.996450806E-1,1.772314453E-1,9.846224670E0,9.872641718E0
1.119283975E1,6.816824341E-1,1.841171265E-1,9.854158173E0,9.879424242E0
1.120287075E1,6.807843018E-1,1.895059204E-1,9.844578094E0,9.869908693E0
1.121290175E1,6.605763245E-1,1.984872437E-1,9.844278717E0,9.868413334E0
1.122293375E1,6.514453125E-1,2.017803955E-1,9.839788055E0,9.863393194E0
1.123296475E1,6.679110718E-1,2.077679443E-1,9.826316071E0,9.851180652E0
1.124299675E1,6.743476868E-1,2.106120300E-1,9.833950195E0,9.859294025E0
1.125302775E1,6.824308777E-1,2.022294617E-1,9.845176849E0,9.870872092E0
1.126305975E1,6.819818115E-1,1.904040527E-1,9.832004242E0,9.857467236E0
1.127309075E1,6.969506836E-1,1.655557251E-1,9.848470001E0,9.874487851E0
1.128312275E1,7.056326294E-1,1.672023010E-1,9.851463776E0,9.878117864E0
1.129315375E1,6.852749634E-1,1.612147522E-1,9.844877472E0,9.870015421E0
1.130318575E1,6.801855469E-1,1.597178650E-1,9.852810974E0,9.877552646E0
1.131321675E1,6.788383484E-1,1.697470093E-1,9.861941986E0,9.886735320E0
1.132324875E1,6.962022400E-1,1.844165039E-1,9.873917084E0,9.900148766E0
1.133327975E1,6.993457031E-1,2.131567383E-1,9.844278717E0,9.871390159E0
1.134331175E1,6.845265198E-1,2.278262329E-1,9.828561401E0,9.855003834E0
1.135334275E1,6.617738342E-1,2.296224976E-1,9.819430389E0,9.844383387E0
1.136337463E1,6.583309937E-1,2.330653381E-1,9.823921051E0,9.848712808E0
1.137340562E1,6.619235229E-1,2.019300842E-1,9.839638367E0,9.863944530E0
1.138343763E1,6.656657410E-1,1.890568542E-1,9.822424164E0,9.846769512E0
1.139346863E1,6.508465576E-1,1.851649475E-1,9.781409454E0,9.804787515E0
1.140350063E1,6.405180359E-1,1.634600830E-1,9.799372101E0,9.821643250E0
1.141353163E1,6.737489319E-1,1.577719116E-1,9.880204010E0,9.904406135E0
1.142356363E1,7.158114624E-1,1.377136230E-1,9.903705139E0,9.930494780E0
1.143359463E1,7.159611511E-1,1.642085266E-1,9.882449341E0,9.909710883E0
1.144362662E1,6.768923950E-1,1.592687988E-1,9.824968872E0,9.849546345E0
1.145365763E1,6.494993591E-1,1.493893433E-1,9.797725525E0,9.820366187E0
1.146368963E1,6.484515381E-1,1.166075134E-1,9.796827393E0,9.818956852E0
1.147372063E1,6.899153137E-1,9.639953613E-2,9.837542725E0,9.862176376E0
1.148375162E1,7.276368713E-1,9.265731812E-2,9.884844360E0,9.912022439E0
1.149378363E1,7.352709961E-1,1.672023010E-1,9.875563660E0,9.904309044E0
1.150381563E1,7.197033691E-1,2.384541321E-1,9.811347198E0,9.840597907E0
1.151384663E1,6.845265198E-1,3.004252625E-1,9.787097626E0,9.815605525E0
1.152387763E1,6.676116943E-1,3.052153015E-1,9.801467743E0,9.828918133E0
1.153390963E1,6.762936401E-1,3.029699707E-1,9.832153931E0,9.860041319E0
1.154394063E1,6.792874146E-1,2.959346008E-1,9.861343231E0,9.889140458E0
1.155397262E1,6.632707214E-1,2.698887634E-1,9.874515839E0,9.900446002E0
1.156400363E1,6.601272583E-1,2.320175171E-1,9.908345490E0,9.933021215E0
1.157403563E1,6.671626282E-1,2.005828857E-1,9.923613739E0,9.948037450E0
1.158406663E1,6.631210327E-1,1.863624573E-1,9.890682220E0,9.914638433E0
1.159409863E1,6.565347290E-1,1.818717957E-1,9.854008484E0,9.877529975E0
1.160412963E1,6.578819275E-1,1.610650635E-1,9.826166382E0,9.849482035E0
1.161416163E1,6.932084656E-1,1.501377869E-1,9.823621674E0,9.849193983E0
1.162419263E1,7.027885437E-1,1.561253357E-1,9.821675720E0,9.848025224E0
1.163422463E1,7.063810730E-1,1.417552185E-1,9.813891907E0,9.840301983E0
1.164425563E1,7.223977661E-1,1.230441284E-1,9.831704865E0,9.858976566E0
1.165428763E1,7.271878052E-1,1.311273193E-1,9.836195526E0,9.863910934E0
1.166431863E1,7.388635254E-1,1.318757629E-1,9.831106110E0,9.859713884E0
1.167435063E1,7.414082336E-1,1.324745178E-1,9.828860779E0,9.857674162E0
1.168438163E1,7.369175720E-1,1.654060364E-1,9.842931519E0,9.871864441E0
1.169441363E1,7.343728638E-1,1.942959595E-1,9.845027161E0,9.874290568E0
1.170444463E1,7.152127075E-1,2.239343262E-1,9.836943970E0,9.865451964E0
1.171447663E1,7.050338745E-1,2.380050659E-1,9.841135254E0,9.869228048E0
1.172450763E1,6.842271423E-1,2.757266235E-1,9.856104126E0,9.883672419E0
1.173453963E1,6.659651184E-1,2.797682190E-1,9.801168365E0,9.827750563E0
1.174457063E1,6.614744568E-1,2.579136658E-1,9.793983307E0,9.819683138E0
1.175460263E1,6.602769470E-1,2.432441711E-1,9.822424164E0,9.847596145E0
1.176463363E1,6.846762085E-1,2.083666992E-1,9.840386810E0,9.866377794E0
1.177466563E1,6.950047302E-1,1.748364258E-1,9.872869263E0,9.898845732E0
1.178469663E1,7.048841858E-1,1.613644409E-1,9.868528290E0,9.894986145E0
1.179472863E1,7.060816956E-1,1.597178650E-1,9.852810974E0,9.879369679E0
1.180475962E1,7.092251587E-1,1.709445190E-1,9.862241364E0,9.889187382E0
1.181479163E1,7.188052368E-1,1.636097717E-1,9.848170624E0,9.875723455E0
1.182482263E1,7.071295166E-1,1.691482544E-1,9.851463776E0,9.878258035E0
1.183485363E1,6.971003723E-1,1.733395386E-1,9.855355682E0,9.881499438E0
1.184488563E1,7.033872986E-1,1.917512512E-1,9.831255798E0,9.858251001E0
1.185491663E1,6.861730957E-1,2.016307068E-1,9.816436615E0,9.842454789E0
1.186494863E1,6.761439514E-1,1.948947144E-1,9.830058289E0,9.855211847E0
1.187497963E1,6.888674927E-1,2.056723022E-1,9.851314087E0,9.877511263E0
1.188501163E1,7.005432129E-1,2.183958435E-1,9.853559418E0,9.880844637E0
1.189504263E1,7.033872986E-1,2.095642090E-1,9.864786072E0,9.892051106E0
1.190507463E1,6.780899048E-1,2.062710571E-1,9.871971130E0,9.897381859E0
1.191510562E1,6.764433289E-1,2.040257263E-1,9.854906616E0,9.880201743E0
1.192513763E1,6.806346130E-1,1.990859985E-1,9.846673737E0,9.872177186E0
1.193516863E1,6.821315002E-1,1.848655701E-1,9.839039612E0,9.864389446E0
1.194520063E1,6.623725891E-1,1.700463867E-1,9.837093658E0,9.860834897E0
1.195523163E1,6.762936401E-1,1.745370483E-1,9.839937744E0,9.864695184E0
1.196526363E1,6.999444580E-1,2.071691895E-1,9.857750702E0,9.884740271E0
1.197529463E1,6.973997498E-1,2.168989563E-1,9.853559418E0,9.880589292E0
1.198532662E1,6.770420837E-1,2.191442871E-1,9.857451324E0,9.883104614E0
1.199535763E1,6.689588928E-1,2.317181396E-1,9.863738251E0,9.889111769E0
1.200538963E1,6.728507996E-1,2.237846375E-1,9.857301636E0,9.882773057E0
1.201542063E1,6.604266357E-1,2.363584900E-1,9.863139496E0,9.888050839E0
1.202545263E1,6.620732117E-1,2.453398132E-1,9.866732025E0,9.891963072E0
1.203548363E1,6.484515381E-1,2.360591125E-1,9.857002258E0,9.881128823E0
1.204551563E1,6.472540283E-1,2.088157654E-1,9.865983582E0,9.889397041E0
1.205554663E1,6.646179199E-1,1.857637024E-1,9.880503387E0,9.904573303E0
1.206557863E1,6.670129395E-1,1.848655701E-1,9.870923309E0,9.895160864E0
1.207560963E1,6.622229004E-1,1.863624573E-1,9.864337006E0,9.888296855E0
1.208564163E1,6.673123169E-1,1.806742859E-1,9.856403503E0,9.880619361E0
1.209567263E1,6.713539124E-1,1.625619507E-1,9.882299652E0,9.906411504E0
1.210570463E1,6.818321228E-1,1.712438965E-1,9.890532532E0,9.915485529E0
1.211573563E1,6.996450806E-1,1.907034302E-1,9.863438873E0,9.890060538E0
1.212576763E1,6.885681152E-1,1.892065430E-1,9.835147705E0,9.861037245E0
1.213579863E1,6.879693604E-1,1.966909790E-1,9.825268250E0,9.851288513E0
1.214583063E1,6.753955078E-1,1.797761536E-1,9.826765137E0,9.851588279E0
1.215586163E1,6.858737183E-1,1.519340515E-1,9.825867004E0,9.850947625E0
1.216589263E1,6.891668701E-1,1.472937012E-1,9.817933502E0,9.843193824E0
1.217592463E1,6.818321228E-1,1.501377869E-1,9.827363892E0,9.852132635E0
1.218595563E1,6.830296326E-1,1.546284485E-1,9.812993774E0,9.837951324E0
1.219598763E1,6.935078430E-1,1.398092651E-1,9.846374359E0,9.871757077E0
1.220601863E1,7.319778442E-1,1.089733887E-1,9.857151947E0,9.884893083E0
1.221605063E1,7.403604126E-1,9.550140381E-2,9.856104126E0,9.884333189E0
1.222608163E1,7.111711121E-1,7.214996338E-2,9.854307861E0,9.880200069E0
1.223611362E1,6.759942627E-1,4.221221924E-2,9.817634125E0,9.840969969E0
1.224614463E1,6.719526672E-1,2.320175171E-2,9.788893890E0,9.811957109E0
1.225617663E1,6.900650024E-1,5.538482666E-3,9.831405487E0,9.855595073E0
1.226620763E1,7.171586609E-1,2.095642090E-2,9.886341248E0,9.912340742E0
1.227623963E1,7.255412292E-1,6.586303711E-2,9.874515839E0,9.901354001E0
1.228627063E1,7.003935242E-1,1.573228455E-1,9.810000000E0,9.836229032E0
1.229630263E1,6.703060913E-1,2.300715637E-1,9.788295135E0,9.813916896E0
1.230633363E1,6.517446899E-1,2.439926147E-1,9.770781555E0,9.795533458E0
1.231636563E1,6.584806824E-1,2.508782959E-1,9.826615448E0,9.851847943E0
1.232639663E1,6.857240295E-1,2.303709412E-1,9.868228912E0,9.894707175E0
1.233642863E1,6.906637573E-1,2.008822632E-1,9.911189575E0,9.937255602E0
1.234645962E1,6.744973755E-1,1.761836243E-1,9.921817474E0,9.946278167E0
1.235649163E1,6.740483093E-1,1.622625732E-1,9.917476501E0,9.941680463E0
1.236652363E1,6.707551575E-1,1.377136230E-1,9.896969147E0,9.920628801E0
1.237655563E1,6.759942627E-1,1.311273193E-1,9.877210236E0,9.901184003E0
1.238658663E1,6.912625122E-1,1.273851013E-1,9.823322296E0,9.848438036E0
1.239661863E1,6.969506836E-1,1.279838562E-1,9.808353424E0,9.833916667E0
1.240664963E1,7.170089722E-1,1.185534668E-1,9.792486420E0,9.819416840E0
1.241668163E1,7.354206848E-1,1.059796143E-1,9.812095642E0,9.840187811E0
1.242671263E1,7.349716187E-1,9.580078125E-2,9.830207977E0,9.858110871E0
1.243674463E1,7.485932922E-1,9.864486694E-2,9.850715332E0,9.879611089E0
1.244677563E1,7.632627869E-1,9.789642334E-2,9.856553192E0,9.886546142E0
1.245680763E1,7.753875732E-1,1.011895752E-1,9.870623932E0,9.901549476E0
1.246683863E1,7.583230591E-1,1.243913269E-1,9.869426422E0,9.899298206E0
1.247687063E1,7.740403748E-1,1.354682922E-1,9.869276733E0,9.900510765E0
1.248690163E1,7.562274170E-1,1.574725342E-1,9.827064514E0,9.857376653E0
1.249693263E1,7.488926697E-1,1.854643250E-1,9.890083466E0,9.920130453E0
1.250696463E1,7.063810730E-1,2.189945984E-1,9.803713074E0,9.831567672E0
1.251699563E1,6.626719666E-1,2.032772827E-1,9.787995758E0,9.812508178E0
1.252702763E1,6.704557800E-1,1.541793823E-1,9.840536499E0,9.864554771E0
1.253705863E1,7.006929016E-1,1.383123779E-1,9.869576111E0,9.895384453E0
1.254709063E1,7.075785828E-1,1.567240906E-1,9.864037628E0,9.890625269E0
1.255712163E1,6.905140686E-1,1.363664246E-1,9.863738251E0,9.888818825E0
1.256715363E1,7.041357422E-1,1.323248291E-1,9.874066772E0,9.900025840E0
1.257718463E1,7.222480774E-1,1.339714050E-1,9.855804749E0,9.883141093E0
1.258721663E1,7.288343811E-1,1.315763855E-1,9.828262024E0,9.856127349E0
1.259724763E1,7.262896729E-1,1.384620667E-1,9.831555176E0,9.859317705E0
1.260727963E1,7.273374939E-1,1.583706665E-1,9.837991791E0,9.866112891E0
1.261731063E1,7.399113464E-1,1.553768921E-1,9.821975098E0,9.851030687E0
1.262734262E1,7.411088562E-1,1.459465027E-1,9.830207977E0,9.859185139E0
1.263737363E1,7.235952759E-1,1.474433899E-1,9.838590546E0,9.866265433E0
1.264740563E1,7.234455872E-1,1.519340515E-1,9.856702881E0,9.884384106E0
1.265743663E1,7.336244202E-1,1.609153748E-1,9.858050079E0,9.886619742E0
1.266746863E1,7.289840698E-1,1.577719116E-1,9.852212219E0,9.880404615E0
1.267749963E1,7.214996338E-1,1.583706665E-1,9.837842102E0,9.865534968E0
1.268753163E1,7.063810730E-1,1.552272034E-1,9.838141479E0,9.864689426E0
1.269756263E1,6.918612671E-1,1.392105103E-1,9.824968872E0,9.850282479E0
1.270759463E1,6.845265198E-1,1.549278259E-1,9.812694397E0,9.837761459E0
1.271762563E1,6.768923950E-1,1.574725342E-1,9.802216187E0,9.826821616E0
1.272765763E1,6.996450806E-1,1.579216003E-1,9.778715057E0,9.804983970E0
1.273768862E1,6.957531738E-1,1.565744019E-1,9.770781555E0,9.796772949E0
1.274772063E1,7.021897888E-1,1.369651794E-1,9.804461517E0,9.830528755E0
1.275775163E1,7.294331360E-1,1.347198486E-1,9.822274475E0,9.850243550E0
1.276778363E1,7.322772217E-1,1.202000427E-1,9.840835876E0,9.868775442E0
1.277781463E1,7.324269104E-1,1.109193420E-1,9.851014709E0,9.878828022E0
1.278784663E1,7.372169495E-1,1.218466187E-1,9.844278717E0,9.872596360E0
1.279787763E1,7.294331360E-1,1.390608215E-1,9.854307861E0,9.882246406E0
1.280790863E1,7.180567932E-1,1.327738953E-1,9.818083191E0,9.845201471E0
1.281794063E1,7.051835632E-1,1.616638184E-1,9.817484436E0,9.844105835E0
1.282797163E1,7.198530579E-1,1.739382935E-1,9.831255798E0,9.859109165E0
1.283800363E1,7.238946533E-1,1.770817566E-1,9.840237122E0,9.868416693E0
1.284803462E1,7.457492065E-1,1.815724182E-1,9.870623932E0,9.900420558E0
1.285806663E1,7.547305298E-1,1.886077881E-1,9.858199768E0,9.888846937E0
1.286809763E1,7.487429810E-1,1.904040527E-1,9.845476227E0,9.875741587E0
1.287812963E1,7.444020081E-1,1.716929626E-1,9.840835876E0,9.870443940E0
1.288816063E1,7.409591675E-1,1.582209778E-1,9.836345215E0,9.865482327E0
1.289819263E1,7.152127075E-1,1.713935852E-1,9.855205994E0,9.882610493E0
1.290822363E1,7.274871826E-1,1.689985657E-1,9.827064514E0,9.855404359E0
1.291825563E1,7.192543030E-1,1.790277100E-1,9.782906342E0,9.810944611E0
1.292828663E1,7.021897888E-1,1.815724182E-1,9.742191010E0,9.769151688E0
1.293831863E1,7.009922791E-1,1.365161133E-1,9.781110077E0,9.807147453E0
1.294834963E1,7.286846924E-1,8.442443848E-2,9.889185333E0,9.916354946E0
1.295838163E1,7.887098694E-1,8.427474976E-2,9.887389069E0,9.919154605E0
1.296841263E1,8.086184692E-1,6.721023560E-2,9.874665527E0,9.907946322E0
1.297844463E1,7.813751221E-1,8.936416626E-2,9.834548950E0,9.865945778E0
1.298847562E1,7.382647705E-1,1.517843628E-1,9.761949921E0,9.791002993E0
1.299850763E1,7.279362488E-1,1.423539734E-1,9.785600739E0,9.813670957E0
1.300853863E1,7.391629028E-1,1.505868530E-1,9.829459534E0,9.858362588E0
1.301857063E1,7.182064819E-1,1.968406677E-1,9.817783813E0,9.845986279E0
1.302860163E1,7.135661316E-1,2.371069336E-1,9.815538483E0,9.844297437E0
1.303863363E1,7.048841858E-1,2.778222656E-1,9.804611206E0,9.833841967E0
1.304866463E1,6.885681152E-1,2.978805542E-1,9.824220428E0,9.852825275E0
1.305869662E1,7.024891663E-1,3.014730835E-1,9.875713348E0,9.905255736E0
1.306872763E1,7.095245361E-1,2.496807861E-1,9.896819458E0,9.925361502E0
1.307875963E1,7.212002563E-1,2.176473999E-1,9.914033661E0,9.942613521E0
1.308879063E1,7.188052368E-1,1.722917175E-1,9.894873505E0,9.922443604E0
1.309882263E1,7.261399841E-1,1.553768921E-1,9.879904633E0,9.907771536E0
1.310885363E1,7.337741089E-1,1.392105103E-1,9.854607239E0,9.882868401E0
1.311888563E1,7.327262878E-1,1.335223389E-1,9.827363892E0,9.855546514E0
1.312891663E1,7.542814636E-1,1.260379028E-1,9.795330505E0,9.825137444E0
1.313894863E1,7.622149658E-1,1.142124939E-1,9.785001984E0,9.815308450E0
1.314897963E1,7.607180786E-1,1.181044006E-1,9.797426147E0,9.827624319E0
1.315901063E1,7.641609192E-1,1.444496155E-1,9.809850311E0,9.840628574E0
1.316904262E1,7.620652771E-1,1.490899658E-1,9.804611206E0,9.835312512E0
1.317907463E1,7.529342651E-1,1.561253357E-1,9.813891907E0,9.843970717E0
1.318910563E1,7.575746155E-1,1.462458801E-1,9.821226654E0,9.851487205E0
1.319913663E1,7.481442261E-1,1.642085266E-1,9.850415955E0,9.880150743E0
1.320916863E1,7.423063660E-1,1.799258423E-1,9.832153931E0,9.861776867E0
1.321919963E1,7.369175720E-1,2.008822632E-1,9.845775604E0,9.875358142E0
1.322923163E1,7.405101013E-1,2.109114075E-1,9.922266541E0,9.952095866E0
1.323926263E1,7.406597900E-1,2.380050659E-1,9.787846069E0,9.818714479E0
1.324929463E1,7.116201782E-1,2.260299683E-1,9.788145447E0,9.816582099E0
1.325932563E1,7.288343811E-1,1.654060364E-1,9.846224670E0,9.874548039E0
1.326935763E1,7.695497131E-1,1.642085266E-1,9.860295410E0,9.891642774E0
1.327938863E1,7.412585449E-1,1.604663086E-1,9.829309845E0,9.858526548E0
1.328942063E1,7.231462097E-1,1.646575928E-1,9.836045837E0,9.863967269E0
1.329945163E1,7.518864441E-1,1.417552185E-1,9.916428680E0,9.945902953E0
1.330948363E1,8.119116211E-1,1.516346741E-1,9.957593079E0,9.991789303E0
1.331951463E1,8.198451233E-1,1.787283325E-1,9.892628174E0,9.928150987E0
1.332954663E1,7.952961731E-1,2.004331970E-1,9.836794281E0,9.870926562E0
1.333957763E1,7.366181946E-1,2.155517578E-1,9.777367859E0,9.807445701E0
1.334960963E1,7.179071045E-1,2.058219910E-1,9.779313812E0,9.807789350E0
1.335964063E1,7.267387390E-1,2.073188782E-1,9.815089417E0,9.844140926E0
1.336967204E1,7.668553162E-1,1.860630798E-1,9.837991791E0,9.869588088E0
1.337970304E1,7.767347717E-1,1.951940918E-1,9.811347198E0,9.843980470E0
1.338973504E1,7.683522034E-1,1.836680603E-1,9.779912567E0,9.811767878E0
1.339976604E1,7.415579224E-1,1.752854919E-1,9.798024902E0,9.827610348E0
1.340979804E1,7.298822021E-1,1.585203552E-1,9.814640350E0,9.843018944E0
1.341982904E1,7.411088562E-1,1.437011719E-1,9.833201752E0,9.862137144E0
1.342986104E1,7.246430969E-1,1.252894592E-1,9.850565643E0,9.877977959E0
1.343989204E1,7.378157043E-1,1.169068909E-1,9.846973114E0,9.875268034E0
1.344992404E1,7.349716187E-1,1.251397705E-1,9.839189301E0,9.867395266E0
1.345995504E1,7.247927856E-1,1.380130005E-1,9.815987549E0,9.843677348E0
1.346998704E1,7.444020081E-1,1.477427673E-1,9.809101868E0,9.838416627E0
1.348001804E1,7.520361328E-1,1.459465027E-1,9.824819183E0,9.854640060E0
1.349005004E1,7.587721252E-1,1.630110168E-1,9.836045837E0,9.866615704E0
1.350008104E1,7.676037598E-1,1.814227295E-1,9.837542725E0,9.869112250E0
1.351011304E1,7.487429810E-1,1.939965820E-1,9.841434631E0,9.871782328E0
1.352014404E1,7.405101013E-1,2.028282166E-1,9.827812958E0,9.857758469E0
1.353017504E1,7.378157043E-1,2.127076721E-1,9.827214203E0,9.857167725E0
1.354020704E1,7.249424744E-1,2.252815247E-1,9.809850311E0,9.839179665E0
1.355023804E1,7.077282715E-1,2.183958435E-1,9.804162140E0,9.832099029E0
1.356027004E1,7.223977661E-1,2.155517578E-1,9.826615448E0,9.855490462E0
1.357030104E1,7.235952759E-1,2.067201233E-1,9.835147705E0,9.863896477E0
1.358033304E1,7.488926697E-1,1.950444031E-1,9.817035370E0,9.847490340E0
1.359036404E1,7.502398682E-1,1.953437805E-1,9.821675720E0,9.852224774E0
1.360039604E1,7.445516968E-1,1.773811340E-1,9.804461517E0,9.834291380E0
1.361042704E1,7.316784668E-1,1.585203552E-1,9.803413696E0,9.831958207E0
1.362045904E1,7.288343811E-1,1.432521057E-1,9.831704865E0,9.859723184E0
1.363049004E1,7.321275330E-1,1.137634277E-1,9.857002258E0,9.884808868E0
1.364052204E1,7.421566772E-1,1.405577087E-1,9.821376343E0,9.850380006E0
1.365055304E1,7.244934082E-1,1.627116394E-1,9.786349182E0,9.814478901E0
1.366058504E1,7.110214233E-1,1.805245972E-1,9.785900116E0,9.813357309E0
1.367061604E1,7.222480774E-1,1.389111328E-1,9.843380585E0,9.870819618E0
1.368064804E1,7.809260559E-1,1.181044006E-1,9.902058563E0,9.933506830E0
1.369067904E1,8.279283142E-1,1.258882141E-1,9.861941986E0,9.897434661E0
1.370071104E1,7.926017761E-1,1.260379028E-1,9.873617706E0,9.906181390E0
1.371074204E1,7.454498291E-1,1.453477478E-1,9.830207977E0,9.859503552E0
1.372077404E1,6.969506836E-1,1.645079041E-1,9.733509064E0,9.759815664E0
1.373080504E1,6.833290100E-1,1.627116394E-1,9.760303345E0,9.785547251E0
1.374083704E1,7.128176880E-1,1.790277100E-1,9.827812958E0,9.855255832E0
1.375086804E1,7.194039917E-1,2.282752991E-1,9.813891907E0,9.842871841E0
1.376090004E1,6.932084656E-1,2.775228882E-1,9.798473969E0,9.826883995E0
1.377093104E1,6.956034851E-1,3.028202820E-1,9.813891907E0,9.843172186E0
1.378096304E1,7.156617737E-1,2.981799316E-1,9.864486694E0,9.894906811E0
1.379099404E1,7.384144592E-1,2.802172852E-1,9.889634399E0,9.921121217E0
1.380102604E1,7.587721252E-1,2.323168945E-1,9.915680237E0,9.947382612E0
1.381105704E1,7.533833313E-1,2.023791504E-1,9.908495178E0,9.939155923E0
1.382108904E1,7.358697510E-1,1.700463867E-1,9.876910858E0,9.905745210E0
1.383112004E1,7.478448486E-1,1.778302002E-1,9.800868988E0,9.830967827E0
1.384115204E1,7.246430969E-1,1.544787598E-1,9.776918793E0,9.804953462E0
1.385118304E1,7.349716187E-1,1.344204712E-1,9.780661011E0,9.809158065E0
1.386121404E1,7.297325134E-1,1.297801208E-1,9.772727509E0,9.800793610E0
1.387124604E1,7.390132141E-1,1.240919495E-1,9.804760895E0,9.833355254E0
1.388127804E1,7.348219299E-1,1.097218323E-1,9.838141479E0,9.866155782E0
1.389130904E1,7.488926697E-1,1.143621826E-1,9.872270508E0,9.901295063E0
1.390134004E1,7.509883118E-1,1.109193420E-1,9.877210236E0,9.906339818E0
1.391137204E1,7.515870667E-1,1.270857239E-1,9.862241364E0,9.891654999E0
1.392140304E1,7.351213074E-1,1.312770081E-1,9.827363892E0,9.855694701E0
1.393143504E1,7.138655090E-1,1.582209778E-1,9.812844086E0,9.840048114E0
1.394146604E1,7.286846924E-1,1.734892273E-1,9.814790039E0,9.843331926E0
1.395149804E1,7.279362488E-1,1.978884888E-1,9.803563385E0,9.832543215E0
1.396152904E1,7.286846924E-1,2.384541321E-1,9.781259766E0,9.811263138E0
1.397156104E1,7.197033691E-1,2.426454163E-1,9.891879730E0,9.920994624E0
1.398159204E1,7.032376099E-1,2.609074402E-1,9.852511597E0,9.881022244E0
1.399162404E1,6.941065979E-1,2.703378296E-1,9.807754669E0,9.836001127E0
1.400165504E1,6.917115784E-1,2.406994629E-1,9.808503113E0,9.835808785E0
1.401168704E1,6.935078430E-1,2.177970886E-1,9.800270233E0,9.827191122E0
1.402171804E1,6.780899048E-1,1.640588379E-1,9.831704865E0,9.856426420E0
1.403175004E1,6.867718506E-1,1.354682922E-1,9.880653076E0,9.905418338E0
1.404178104E1,7.270381165E-1,1.240919495E-1,9.896819458E0,9.924264135E0
1.405181304E1,7.515870667E-1,1.143621826E-1,9.907297668E0,9.936423346E0
1.406184404E1,7.707472229E-1,1.209484863E-1,9.891430664E0,9.922150997E0
1.407187604E1,7.701484680E-1,1.478924561E-1,9.866881714E0,9.897997555E0
1.408190704E1,7.448510742E-1,1.728904724E-1,9.810898132E0,9.840651218E0
1.409193904E1,6.982978821E-1,1.660047913E-1,9.789193268E0,9.815471581E0
1.410197004E1,6.867718506E-1,1.669029236E-1,9.820029144E0,9.845429628E0
1.411200204E1,7.203021240E-1,1.663041687E-1,9.850565643E0,9.878265826E0
1.412203304E1,7.536827087E-1,1.594184875E-1,9.855505371E0,9.885567156E0
1.413206504E1,7.506889343E-1,1.824705505E-1,9.832153931E0,9.862458126E0
1.414209604E1,7.225474548E-1,1.751358032E-1,9.835297394E0,9.863357552E0
1.415212804E1,7.084767151E-1,1.844165039E-1,9.857301636E0,9.884449617E0
1.416215904E1,7.048841858E-1,1.935475159E-1,9.831555176E0,9.858691573E0
1.417219104E1,6.997947693E-1,1.715432739E-1,9.801168365E0,9.827616249E0
1.418222204E1,6.765930176E-1,1.754351807E-1,9.807006226E0,9.831883173E0
1.419225404E1,6.809339905E-1,1.591191101E-1,9.824669495E0,9.849523880E0
1.420228504E1,7.003935242E-1,1.718426514E-1,9.836494904E0,9.862895770E0
1.421231704E1,7.152127075E-1,1.630110168E-1,9.850865021E0,9.878139676E0
1.422234804E1,7.132667542E-1,1.719923401E-1,9.859097900E0,9.886361426E0
1.423238004E1,7.153623962E-1,1.698966980E-1,9.868228912E0,9.895582353E0
1.424241104E1,7.101232910E-1,1.562750244E-1,9.877659302E0,9.904385405E0
1.425244304E1,6.872209167E-1,1.423539734E-1,9.884245605E0,9.909129550E0
1.426247404E1,7.042854309E-1,1.516346741E-1,9.867929535E0,9.894192456E0
1.427250504E1,6.872209167E-1,1.715432739E-1,9.828411713E0,9.853901587E0
1.428253704E1,6.686595154E-1,1.760339355E-1,9.835297394E0,9.859572421E0
1.429256804E1,6.722520447E-1,1.767823792E-1,9.865235138E0,9.889693582E0
1.430260004E1,7.024891663E-1,1.811233521E-1,9.861642609E0,9.888290633E0
1.431263104E1,7.167095947E-1,1.986369324E-1,9.829459534E0,9.857555681E0
1.432266304E1,7.056326294E-1,2.056723022E-1,9.820328522E0,9.847795224E0
1.433269404E1,6.938072205E-1,1.971400452E-1,9.806407471E0,9.832896833E0
1.434272604E1,6.602769470E-1,1.700463867E-1,9.825118561E0,9.848747949E0
1.435275704E1,6.852749634E-1,1.345701599E-1,9.873917084E0,9.898583206E0
1.436278963E1,7.051835632E-1,1.365161133E-1,9.877808990E0,9.903889688E0
1.437282063E1,7.014413452E-1,1.481918335E-1,9.809401245E0,9.835564731E0
1.438285263E1,6.920109558E-1,1.663041687E-1,9.856702881E0,9.882364490E0
1.439288362E1,7.276368713E-1,1.269360352E-1,9.893825684E0,9.921358517E0
1.440291563E1,7.655081177E-1,1.336720276E-1,9.958491211E0,9.988764593E0
1.441294663E1,7.855664063E-1,1.745370483E-1,9.858798523E0,9.891586631E0
1.442297863E1,7.152127075E-1,1.892065430E-1,9.789193268E0,9.817109206E0
1.443300963E1,6.756948853E-1,1.691482544E-1,9.771679688E0,9.796473785E0
1.444304163E1,6.667135620E-1,1.634600830E-1,9.758058014E0,9.782173704E0
1.445307263E1,6.985972595E-1,1.398092651E-1,9.789642334E0,9.815532680E0
1.446310462E1,7.538323975E-1,1.351689148E-1,9.841434631E0,9.871188861E0
1.447313563E1,7.586224365E-1,1.589694214E-1,9.855355682E0,9.885788532E0
1.448316763E1,7.246430969E-1,2.098635864E-1,9.804461517E0,9.833443750E0
1.449319863E1,6.777905273E-1,2.640509033E-1,9.771679688E0,9.798716589E0
1.450323063E1,6.689588928E-1,2.749781799E-1,9.796078949E0,9.822743088E0
1.451326163E1,6.918612671E-1,2.595602417E-1,9.842482452E0,9.870182590E0
1.452329363E1,7.176077271E-1,2.401007080E-1,9.888586578E0,9.917497352E0
1.453332463E1,7.165599060E-1,2.013313293E-1,9.902058563E0,9.929992759E0
1.454335663E1,7.030879211E-1,1.748364258E-1,9.904004517E0,9.930468562E0
1.455338763E1,7.096742249E-1,1.429527283E-1,9.891730042E0,9.918185126E0
1.456341963E1,7.219487000E-1,1.589694214E-1,9.871971130E0,9.899610861E0
1.457345063E1,7.060816956E-1,1.456471252E-1,9.840386810E0,9.866761223E0
1.458348263E1,7.104226685E-1,1.607656860E-1,9.819430389E0,9.846408439E0
1.459351363E1,7.282356262E-1,1.555265808E-1,9.798174591E0,9.826430734E0
1.460354563E1,7.226971436E-1,1.576222229E-1,9.787846069E0,9.815756038E0
1.461357663E1,7.229965210E-1,1.523831177E-1,9.816586304E0,9.844354283E0
1.462360863E1,7.217990112E-1,1.472937012E-1,9.827064514E0,9.854637802E0
1.463363963E1,7.297325134E-1,1.480421448E-1,9.837842102E0,9.865980095E0
1.464367063E1,7.167095947E-1,1.591191101E-1,9.820029144E0,9.847434383E0
1.465370263E1,6.903643799E-1,1.514849854E-1,9.813293152E0,9.838712983E0
1.466373363E1,6.828799438E-1,1.752854919E-1,9.814191284E0,9.839481723E0
1.467376563E1,6.957531738E-1,1.850152588E-1,9.835596771E0,9.861909905E0
1.468379663E1,6.932084656E-1,2.055226135E-1,9.838889923E0,9.865421047E0
1.469382863E1,6.971003723E-1,2.215393066E-1,9.779463501E0,9.806780051E0
1.470385963E1,6.899153137E-1,2.279759216E-1,9.828112335E0,9.854935222E0
1.471389162E1,6.709048462E-1,2.174977112E-1,9.853110352E0,9.878319805E0
1.472392263E1,6.475534058E-1,2.294728088E-1,9.762548676E0,9.786691976E0
1.473395463E1,6.456074524E-1,2.086660767E-1,9.798923035E0,9.822384800E0
1.474398563E1,6.875202942E-1,1.483415222E-1,9.864486694E0,9.889529165E0
1.475401763E1,7.369175720E-1,1.324745178E-1,9.908794556E0,9.937042143E0
1.476404863E1,7.336244202E-1,1.092727661E-1,9.900262299E0,9.928007802E0
1.477408063E1,7.081773376E-1,9.535171509E-2,9.907447357E0,9.933182784E0
1.478411163E1,6.903643799E-1,1.028361511E-1,9.909393311E0,9.933944535E0
1.479414363E1,7.018904114E-1,1.209484863E-1,9.879305878E0,9.904946406E0
1.480417463E1,7.041357422E-1,1.475930786E-1,9.841135254E0,9.867397526E0
1.481420663E1,7.035369873E-1,1.649569702E-1,9.830956421E0,9.857478341E0
1.482423762E1,6.887178040E-1,1.727407837E-1,9.832153931E0,9.857759508E0
1.483426963E1,6.857240295E-1,1.794767761E-1,9.857451324E0,9.882903216E0
1.484430063E1,7.087760925E-1,1.817221069E-1,9.847272491E0,9.874419578E0
1.485433263E1,6.962022400E-1,1.847158813E-1,9.854158173E0,9.880447905E0
1.486436363E1,6.860234070E-1,1.779798889E-1,9.856702881E0,9.882150406E0
1.487439563E1,6.969506836E-1,1.742376709E-1,9.874665527E0,9.900763521E0
1.488442663E1,6.830296326E-1,1.661544800E-1,9.849368134E0,9.874420966E0
1.489445862E1,6.727011108E-1,1.701960754E-1,9.825268250E0,9.849740589E0
1.490448963E1,6.614744568E-1,1.701960754E-1,9.808802490E0,9.832554167E0
1.491452163E1,6.480024719E-1,1.679507446E-1,9.789792023E0,9.812652165E0
1.492455263E1,6.512956238E-1,1.459465027E-1,9.814640350E0,9.837309163E0
1.493458463E1,6.765930176E-1,1.511856079E-1,9.842482452E0,9.866868603E0
1.494461563E1,6.864724731E-1,1.413061523E-1,9.829459534E0,9.854414575E0
1.495464763E1,6.857240295E-1,1.463955688E-1,9.830058289E0,9.855033996E0
1.496467863E1,6.743476868E-1,1.648072815E-1,9.831405487E0,9.855883527E0
1.497471063E1,6.622229004E-1,1.507365417E-1,9.834399261E0,9.857822757E0
1.498474163E1,6.632707214E-1,1.290316772E-1,9.841284943E0,9.864454701E0
1.499477363E1,6.478527832E-1,1.417552185E-1,9.854906616E0,9.877195563E0
1.500480463E1,6.499484253E-1,1.589694214E-1,9.856702881E0,9.879387426E0
1.501483563E1,6.529421997E-1,1.712438965E-1,9.869276733E0,9.892334468E0
1.502486763E1,6.610253906E-1,1.652563477E-1,9.857601013E0,9.881121493E0
1.503489863E1,6.655160522E-1,1.788780212E-1,9.865534515E0,9.889574320E0
1.504493063E1,6.598278809E-1,1.974394226E-1,9.858050079E0,9.882080071E0
1.505496163E1,6.562353516E-1,1.775308228E-1,9.835147705E0,9.858615137E0
1.506499363E1,6.647676086E-1,1.950444031E-1,9.841584320E0,9.865938385E0
1.507502463E1,6.788383484E-1,1.799258423E-1,9.841434631E0,9.866459872E0
1.508505663E1,6.721023560E-1,1.847158813E-1,9.826316071E0,9.851006499E0
1.509508763E1,6.881190491E-1,1.688488770E-1,9.841584320E0,9.867056283E0
1.510511963E1,6.966513062E-1,1.679507446E-1,9.857750702E0,9.883763423E0
1.511515063E1,6.863227844E-1,1.603166199E-1,9.854906616E0,9.880077166E0
1.512518263E1,6.813830566E-1,1.529818726E-1,9.860145721E0,9.884844964E0
1.513521363E1,6.762936401E-1,1.675016785E-1,9.846074982E0,9.870695135E0
1.514524562E1,6.647676086E-1,1.499880981E-1,9.854158173E0,9.877694351E0
1.515527663E1,6.506968689E-1,1.437011719E-1,9.832004242E0,9.854560561E0
1.516530863E1,6.420149231E-1,1.580712891E-1,9.802964630E0,9.825237159E0
1.517533963E1,6.375242615E-1,1.842668152E-1,9.821675720E0,9.844069555E0
1.518537163E1,6.539900208E-1,1.689985657E-1,9.854307861E0,9.877431189E0
1.519540263E1,6.878196716E-1,2.176473999E-1,9.850865021E0,9.877246982E0
1.520543463E1,6.786886597E-1,2.263293457E-1,9.814640350E0,9.840681301E0
1.521546563E1,6.411167908E-1,2.390528870E-1,9.780062256E0,9.803968316E0
1.522549763E1,6.182144165E-1,2.326162720E-1,9.772428131E0,9.794725671E0
1.523552863E1,6.253994751E-1,2.067201233E-1,9.830507355E0,9.852549546E0
1.524556063E1,6.515950012E-1,1.577719116E-1,9.849517822E0,9.872308208E0
1.525559162E1,6.547384644E-1,1.579216003E-1,9.794282684E0,9.817412846E0
1.526562363E1,6.376739502E-1,1.601669312E-1,9.766889648E0,9.788994582E0
1.527565463E1,6.584806824E-1,1.374142456E-1,9.880054321E0,9.902926480E0
1.528568663E1,7.072792053E-1,1.164578247E-1,9.911339264E0,9.937225584E0
1.529571763E1,7.322772217E-1,1.106199646E-1,9.898615723E0,9.926281274E0
1.530574963E1,7.053332520E-1,1.181044006E-1,9.860145721E0,9.886046596E0
1.531578063E1,6.701564026E-1,1.077758789E-1,9.775721283E0,9.799257719E0
1.532581263E1,6.551875305E-1,9.026229858E-2,9.782457275E0,9.804789051E0
1.533584363E1,6.849755859E-1,6.780899048E-2,9.834249573E0,9.858308895E0
1.534587563E1,7.307803345E-1,4.026626587E-2,9.875114594E0,9.902199226E0
1.535590663E1,7.720944214E-1,8.831634521E-2,9.890233154E0,9.920717787E0
1.536593817E1,7.403604126E-1,1.442999268E-1,9.848619690E0,9.877462519E0
1.537596917E1,6.857240295E-1,2.168989563E-1,9.797875214E0,9.824236423E0
1.538600117E1,6.688092041E-1,2.558180237E-1,9.793983307E0,9.820125133E0
1.539603217E1,6.753955078E-1,2.779719543E-1,9.836345215E0,9.863423071E0
1.540606417E1,7.048841858E-1,2.993774414E-1,9.861193542E0,9.890886040E0
1.541609517E1,7.036866760E-1,2.926414490E-1,9.893226929E0,9.922537630E0
1.542612717E1,6.953041077E-1,2.781216431E-1,9.909992065E0,9.938246434E0
1.543615817E1,6.917115784E-1,2.612068176E-1,9.918374634E0,9.945896103E0
1.544618917E1,6.718029785E-1,2.436932373E-1,9.893376617E0,9.919153519E0
1.545622117E1,6.719526672E-1,2.267784119E-1,9.858648834E0,9.884123920E0
1.546625217E1,6.730004883E-1,2.010319519E-1,9.833650818E0,9.858703358E0
1.547628417E1,6.652166748E-1,1.866618347E-1,9.802216187E0,9.826535403E0
1.548631517E1,6.689588928E-1,1.592687988E-1,9.791887665E0,9.816004105E0
1.549634717E1,6.885681152E-1,1.246907043E-1,9.803114319E0,9.828058006E0
1.550637817E1,6.984475708E-1,1.037342834E-1,9.832752686E0,9.858073604E0
1.551641017E1,7.123686218E-1,9.131011963E-2,9.831704865E0,9.857901761E0
1.552644117E1,7.252418518E-1,9.160949707E-2,9.839189301E0,9.866307016E0
1.553647317E1,7.255412292E-1,8.487350464E-2,9.873018951E0,9.900005899E0
1.554650417E1,7.301815796E-1,1.028361511E-1,9.867630157E0,9.895143523E0
1.555653617E1,7.327262878E-1,1.276844788E-1,9.872270508E0,9.900248286E0
1.556656717E1,7.327262878E-1,1.718426514E-1,9.857002258E0,9.885692248E0
1.557659917E1,7.234455872E-1,2.014810181E-1,9.827363892E0,9.856015888E0
1.558663017E1,6.969506836E-1,2.264790344E-1,9.807754669E0,9.835094542E0
1.559666217E1,6.815327454E-1,2.516267395E-1,9.834998016E0,9.861794405E0
1.560669317E1,6.521937561E-1,2.646496582E-1,9.771380310E0,9.796696857E0
1.561672517E1,6.517446899E-1,2.454895020E-1,9.816137238E0,9.840812289E0
1.562675617E1,6.888674927E-1,2.052232361E-1,9.865085449E0,9.891236825E0
1.563678817E1,7.280859375E-1,1.957928467E-1,9.892179108E0,9.920869492E0
1.564681917E1,7.243437195E-1,1.755848694E-1,9.889784088E0,9.917829056E0
1.565685117E1,7.041357422E-1,1.417552185E-1,9.868378601E0,9.894483205E0
1.566688217E1,6.990463257E-1,1.306782532E-1,9.869576111E0,9.895164232E0
1.567691417E1,7.129673767E-1,1.475930786E-1,9.859397278E0,9.886244023E0
1.568694517E1,7.267387390E-1,1.457968140E-1,9.825567627E0,9.853485936E0
1.569697717E1,7.270381165E-1,1.728904724E-1,9.814939728E0,9.843348891E0
1.570700817E1,7.048841858E-1,1.824705505E-1,9.833052063E0,9.859973128E0
1.571704017E1,6.965016174E-1,1.887574768E-1,9.840536499E0,9.866960144E0
1.572707117E1,7.009922791E-1,1.739382935E-1,9.846673737E0,9.873126576E0
1.573710317E1,6.914122009E-1,1.725910950E-1,9.851613464E0,9.877354219E0
1.574713417E1,6.809339905E-1,1.633103943E-1,9.873617706E0,9.898417449E0
1.575716617E1,6.884184265E-1,1.541793823E-1,9.871671753E0,9.896847701E0
1.576719717E1,6.997947693E-1,1.781295776E-1,9.835447083E0,9.861919802E0
1.577722917E1,6.809339905E-1,1.603166199E-1,9.836494904E0,9.861338880E0
1.578726017E1,6.752458191E-1,1.570234680E-1,9.834399261E0,9.858804295E0
1.579729217E1,6.692582703E-1,1.654060364E-1,9.813293152E0,9.837478756E0
1.580732317E1,6.680607605E-1,1.410067749E-1,9.805509338E0,9.829252336E0
1.581735517E1,6.822811890E-1,1.360670471E-1,9.808203735E0,9.832847114E0
1.582738617E1,7.002438354E-1,1.511856079E-1,9.829908600E0,9.855977963E0
1.583741717E1,7.071295166E-1,1.523831177E-1,9.841734009E0,9.868281566E0
1.584744917E1,7.021897888E-1,1.543290710E-1,9.837692413E0,9.863928223E0
1.585748017E1,6.923103333E-1,1.603166199E-1,9.843530273E0,9.869148051E0
1.586751217E1,6.982978821E-1,1.716929626E-1,9.846823425E0,9.873045628E0
1.587754317E1,6.882687378E-1,1.736389160E-1,9.840237122E0,9.865806147E0
1.588757517E1,6.906637573E-1,1.721420288E-1,9.851463776E0,9.877144720E0
1.589760617E1,6.881190491E-1,1.739382935E-1,9.844727783E0,9.870280010E0
1.590763817E1,6.725514221E-1,1.604663086E-1,9.845027161E0,9.869277311E0
1.591766917E1,6.782395935E-1,1.692979431E-1,9.853260040E0,9.878026329E0
1.592770117E1,6.807843018E-1,1.803749084E-1,9.853110352E0,9.878248123E0
1.593773217E1,7.030879211E-1,1.622625732E-1,9.862540741E0,9.888901437E0
1.594776417E1,7.026388550E-1,1.621128845E-1,9.867929535E0,9.894241520E0
1.595779517E1,7.032376099E-1,1.609153748E-1,9.854008484E0,9.880380564E0
1.596782717E1,7.089257812E-1,1.282832336E-1,9.838440857E0,9.864783365E0
1.597785817E1,7.158114624E-1,1.378633118E-1,9.833950195E0,9.860931436E0
1.598789017E1,7.177574158E-1,1.288819885E-1,9.848470001E0,9.875431517E0
1.599792117E1,7.243437195E-1,1.344204712E-1,9.815239105E0,9.842848235E0
1.600795317E1,7.029382324E-1,1.381626892E-1,9.817035370E0,9.843139466E0
1.601798417E1,7.057823181E-1,1.490899658E-1,9.842931519E0,9.869329125E0
1.602801617E1,7.135661316E-1,1.646575928E-1,9.874665527E0,9.901783073E0
1.603804717E1,7.191046143E-1,1.636097717E-1,9.875563660E0,9.903062011E0
1.604807917E1,6.969506836E-1,1.901046753E-1,9.831405487E0,9.857911234E0
1.605811017E1,6.735992432E-1,1.911524963E-1,9.832602997E0,9.857502570E0
1.606814217E1,6.465055847E-1,1.901046753E-1,9.846224670E0,9.869257800E0
1.607817317E1,6.500981140E-1,1.568737793E-1,9.851014709E0,9.873688660E0
1.608820517E1,6.474037170E-1,1.393601990E-1,9.854158173E0,9.876385276E0
1.609823617E1,6.650669861E-1,1.396595764E-1,9.808503113E0,9.832016691E0
1.610826817E1,6.508465576E-1,1.594184875E-1,9.787846069E0,9.810756656E0
1.611829917E1,6.679110718E-1,1.311273193E-1,9.859996033E0,9.883462012E0
1.612833117E1,7.348219299E-1,1.243913269E-1,9.930349731E0,9.958277073E0
1.613836217E1,7.704478455E-1,1.348695374E-1,9.910441132E0,9.941258627E0
1.614839417E1,7.375163269E-1,1.543290710E-1,9.874515839E0,9.903222245E0
1.615842517E1,6.935078430E-1,1.432521057E-1,9.827363892E0,9.852845038E0
1.616845717E1,6.605763245E-1,1.317260742E-1,9.778715057E0,9.801886605E0
1.617848817E1,6.652166748E-1,1.091230774E-1,9.771230621E0,9.794456030E0
1.618852017E1,7.191046143E-1,6.182144165E-2,9.844129028E0,9.870552652E0
1.619855117E1,7.559280396E-1,7.484436035E-2,9.871971130E0,9.901153614E0
1.620858317E1,7.466473389E-1,1.056802368E-1,9.834099884E0,9.862969689E0
1.621861417E1,7.249424744E-1,1.703457642E-1,9.802216187E0,9.830462931E0
1.622864617E1,7.051835632E-1,2.145039368E-1,9.787247314E0,9.814963362E0
1.623867717E1,6.976991272E-1,2.409988403E-1,9.805209961E0,9.832955145E0
1.624870917E1,7.117698669E-1,2.532733154E-1,9.842033386E0,9.870987027E0
1.625874017E1,7.114704895E-1,2.374063110E-1,9.878258057E0,9.906691388E0
1.626877217E1,6.984475708E-1,2.258802795E-1,9.897717590E0,9.924901229E0
1.627880317E1,6.923103333E-1,2.071691895E-1,9.891879730E0,9.918240634E0
1.628883417E1,6.798861694E-1,2.122586060E-1,9.870474243E0,9.896138676E0
1.629886617E1,6.734495544E-1,1.806742859E-1,9.851014709E0,9.875660398E0
1.630889717E1,6.740483093E-1,1.728904724E-1,9.825567627E0,9.850178244E0
1.631892917E1,6.833290100E-1,1.594184875E-1,9.824519806E0,9.849545279E0
1.632896017E1,6.997947693E-1,1.407073975E-1,9.830207977E0,9.856089497E0
1.633899217E1,6.987469482E-1,1.239422607E-1,9.812095642E0,9.837724832E0
1.634902317E1,7.226971436E-1,1.098715210E-1,9.834848328E0,9.861977720E0
1.635905517E1,7.262896729E-1,1.151106262E-1,9.854457550E0,9.881856139E0
1.636908575E1,7.366181946E-1,1.190025330E-1,9.833800507E0,9.862068767E0
1.637911775E1,7.502398682E-1,1.294807434E-1,9.856253815E0,9.885614011E0
1.638914875E1,7.592211914E-1,1.450483704E-1,9.851613464E0,9.881889683E0
1.639918075E1,7.457492065E-1,1.731898499E-1,9.864786072E0,9.894450002E0
1.640921175E1,7.433541870E-1,2.020797729E-1,9.878856812E0,9.908845724E0
1.641924375E1,7.396119690E-1,2.192939758E-1,9.840835876E0,9.871026616E0
1.642927475E1,7.143145752E-1,2.365081787E-1,9.829459534E0,9.858217697E0
1.643930675E1,6.604266357E-1,2.552192688E-1,9.849218445E0,9.874634383E0
1.644933775E1,6.469546509E-1,2.504292297E-1,9.787247314E0,9.811802847E0
1.645936975E1,6.373745728E-1,2.347119141E-1,9.790989532E0,9.814520470E0
1.646940075E1,6.674620056E-1,1.905537415E-1,9.859546967E0,9.883950761E0
1.647943275E1,7.282356262E-1,1.489402771E-1,9.911638641E0,9.939471359E0
1.648946375E1,7.390132141E-1,1.341210938E-1,9.886341248E0,9.914830925E0
1.649949575E1,7.195536804E-1,1.363664246E-1,9.879904633E0,9.907011096E0
1.650952675E1,7.170089722E-1,1.342707825E-1,9.873617706E0,9.900528123E0
1.651955875E1,7.183561707E-1,1.423539734E-1,9.857601013E0,9.884765955E0
1.652958975E1,7.346722412E-1,1.552272034E-1,9.854307861E0,9.882875200E0
1.653962175E1,7.339237976E-1,1.731898499E-1,9.838740234E0,9.867595871E0
1.654965275E1,7.149133301E-1,1.989363098E-1,9.844578094E0,9.872507006E0
1.655968475E1,7.029382324E-1,2.128573608E-1,9.847422180E0,9.874773618E0
1.656971575E1,6.908134460E-1,2.227368164E-1,9.839338989E0,9.866074531E0
1.657974775E1,6.727011108E-1,1.993853760E-1,9.859397278E0,9.884330832E0
1.658977875E1,6.890171814E-1,2.110610962E-1,9.894574127E0,9.920780646E0
1.659981075E1,7.027885437E-1,2.073188782E-1,9.887239380E0,9.914353000E0
1.660984175E1,6.975494385E-1,1.968406677E-1,9.882000275E0,9.908544338E0
1.661987375E1,6.905140686E-1,1.975891113E-1,9.877210236E0,9.903289008E0
1.662990475E1,6.834786987E-1,1.878593445E-1,9.869127045E0,9.894549150E0
1.663993675E1,6.804849243E-1,1.678010559E-1,9.841434631E0,9.866359639E0
1.664996775E1,6.685098267E-1,1.757345581E-1,9.829908600E0,9.854181402E0
1.665999975E1,6.725514221E-1,1.631607056E-1,9.808054047E0,9.832439728E0
1.667003075E1,6.730004883E-1,1.559756470E-1,9.795779572E0,9.820109749E0
