"Time (s)","Acceleration x (m/s^2)","Acceleration y (m/s^2)","Acceleration z (m/s^2)","Absolute acceleration (m/s^2)"
1.081499970E-3,1.161135406E0,1.050814819E-1,9.322314148E0,9.394935797E0
1.111349999E-2,1.234333191E0,2.074685669E-1,8.912915497E0,9.000371342E0
2.114450000E-2,1.247356110E0,2.800675964E-1,8.683891754E0,8.777488885E0
3.117650002E-2,1.251547394E0,2.962339783E-1,8.900940399E0,8.993378978E0
4.120749998E-2,1.250499573E0,2.555186462E-1,9.400900726E0,9.487147802E0
5.123950000E-2,1.283431091E0,1.675016785E-1,9.884994049E0,9.969371070E0
6.127050001E-2,1.303938446E0,6.721023560E-2,1.017494110E1,1.025837215E1
7.130249997E-2,1.279988251E0,-2.095642090E-2,1.024664200E1,1.032630047E1
8.133449999E-2,1.222058716E0,-6.825805664E-2,1.019455032E1,1.026776232E1
9.136550000E-2,1.180295563E0,-9.026229858E-2,1.012554382E1,1.019450257E1
1.013975000E-1,1.146765289E0,-6.466552734E-2,1.004426285E1,1.010972148E1
1.114285000E-1,1.156345367E0,-5.239105225E-2,9.879904633E0,9.947481841E0
1.214605000E-1,1.136287079E0,-8.232879639E-3,9.702822876E0,9.769134448E0
1.314915000E-1,1.134640503E0,3.637435913E-2,9.564510498E0,9.631645406E0
1.415235000E-1,1.147663422E0,7.394622803E-2,9.528585205E0,9.597735951E0
1.515545000E-1,1.165177002E0,1.125659180E-1,9.593849487E0,9.665001630E0
1.615865000E-1,1.187929688E0,1.083746338E-1,9.708361359E0,9.781370163E0
1.716175000E-1,1.175505524E0,9.789642334E-2,9.833800507E0,9.904293481E0
1.816495000E-1,1.139430542E0,7.274871826E-2,9.896370392E0,9.962014920E0
1.916805000E-1,1.128503265E0,3.667373657E-2,9.935888214E0,9.999836958E0
2.017125000E-1,1.112785950E0,1.960922241E-2,9.929601288E0,9.991779563E0
2.117435000E-1,1.102756805E0,4.790039063E-2,9.824819183E0,9.886629305E0
2.217755000E-1,1.099613342E0,6.376739502E-2,9.757159882E0,9.819133604E0
2.318075000E-1,1.131946106E0,3.472778320E-2,9.842033386E0,9.906973765E0
2.418385000E-1,1.214723969E0,3.308120728E-2,9.848020935E0,9.922709561E0
2.518705000E-1,1.246457977E0,5.119354248E-2,9.780661011E0,9.859898989E0
2.619015000E-1,1.197659454E0,5.328918457E-2,9.708061981E0,9.781804299E0
2.719335000E-1,1.153351593E0,2.978805542E-2,9.702074432E0,9.770432719E0
2.819645000E-1,1.152603149E0,-1.077758789E-2,9.780062256E0,9.847752429E0
2.919965000E-1,1.196611633E0,-2.679428101E-2,9.896071014E0,9.968190350E0
3.020275000E-1,1.212179260E0,5.837860107E-3,9.927355957E0,1.000109039E1
3.120595000E-1,1.190474396E0,4.281097412E-2,9.854756927E0,9.926494657E0
3.220905000E-1,1.159788208E0,8.936416626E-2,9.757010193E0,9.826105156E0
3.321225000E-1,1.168170776E0,1.254391479E-1,9.716294861E0,9.787070234E0
3.421535000E-1,1.182241516E0,1.561253357E-1,9.737400970E0,9.810150243E0
3.521855000E-1,1.191671906E0,1.722917175E-1,9.772128754E0,9.846027968E0
3.622165000E-1,1.181792450E0,1.618135071E-1,9.802964630E0,9.875268733E0
3.722485000E-1,1.185384979E0,1.377136230E-1,9.802066498E0,9.874442274E0
3.822795000E-1,1.162482605E0,1.065783691E-1,9.836345215E0,9.905372882E0
3.923115000E-1,1.157243500E0,8.412506104E-2,9.846673737E0,9.914800715E0
4.023435000E-1,1.166224823E0,5.538482666E-2,9.803713074E0,9.872990319E0
4.123745000E-1,1.175355835E0,4.939727783E-2,9.773326263E0,9.843871580E0
4.224065000E-1,1.176253967E0,1.332229614E-2,9.762997742E0,9.833609499E0
4.324375000E-1,1.181493073E0,2.395019531E-3,9.780361633E0,9.851467165E0
4.424695000E-1,1.183738403E0,2.095642090E-3,9.782157898E0,9.853519886E0
4.525005000E-1,1.176403656E0,-1.392105103E-2,9.795779572E0,9.866175387E0
4.625325000E-1,1.190025330E0,-1.062789917E-2,9.822873230E0,9.894701195E0
4.725635000E-1,1.195264435E0,-5.388793945E-3,9.843679962E0,9.915983124E0
4.825955000E-1,1.195264435E0,2.424957275E-2,9.855505371E0,9.927750562E0
4.926265000E-1,1.193767548E0,4.221221924E-2,9.850116577E0,9.922280958E0
5.026585000E-1,1.187480621E0,7.828720093E-2,9.814340973E0,9.886229202E0
5.126895000E-1,1.164278870E0,1.222956848E-1,9.853409729E0,9.922710558E0
5.227215000E-1,1.135388947E0,1.597178650E-1,9.816586304E0,9.883318497E0
5.327525000E-1,1.110390930E0,1.800755310E-1,9.763297119E0,9.827887151E0
5.427845000E-1,1.112785950E0,1.794767761E-1,9.753417664E0,9.818332883E0
5.528165000E-1,1.124461670E0,1.811233521E-1,9.736652527E0,9.803041474E0
5.628475000E-1,1.130149841E0,1.585203552E-1,9.783205719E0,9.849542198E0
5.728795000E-1,1.133742371E0,1.188528442E-1,9.833501129E0,9.899355647E0
5.829105000E-1,1.183289337E0,9.101074219E-2,9.881551208E0,9.952563032E0
5.929425000E-1,1.220112762E0,9.145980835E-2,9.893226929E0,9.968599657E0
6.029735000E-1,1.236578522E0,7.619155884E-2,9.861193542E0,9.938715696E0
6.130055000E-1,1.208137665E0,9.041198730E-2,9.783056030E0,9.857786579E0
6.230365000E-1,1.168170776E0,8.292755127E-2,9.742789764E0,9.812922721E0
6.330685000E-1,1.164578247E0,7.185058594E-2,9.756710815E0,9.826230759E0
6.430995000E-1,1.178499298E0,4.625381470E-2,9.796078949E0,9.866821311E0
6.531315000E-1,1.209484863E0,1.332229614E-2,9.840087433E0,9.914149071E0
6.631625000E-1,1.217867432E0,-2.005828857E-2,9.854457550E0,9.929447972E0
6.731945000E-1,1.230890350E0,-1.571731567E-2,9.846524048E0,9.923173581E0
6.832255000E-1,1.235830078E0,-4.041595459E-3,9.819580078E0,9.897042246E0
6.932575000E-1,1.225351868E0,-1.197509766E-2,9.797126770E0,9.873465630E0
7.032885000E-1,1.212778015E0,-3.891906738E-3,9.793234863E0,9.868044120E0
7.133205000E-1,1.205443268E0,-3.592529297E-3,9.759704590E0,9.833866994E0
7.233525000E-1,1.197360077E0,-1.017883301E-2,9.774374084E0,9.847444517E0
7.333835000E-1,1.183888092E0,-6.436614990E-3,9.759105835E0,9.830655072E0
7.434155000E-1,1.191821594E0,1.466949463E-2,9.772877197E0,9.845292409E0
7.534465000E-1,1.206042023E0,-1.646575928E-3,9.789642334E0,9.863652320E0
7.634785000E-1,1.219364319E0,1.511856079E-2,9.792935486E0,9.868569468E0
7.735095000E-1,1.211430817E0,4.071533203E-2,9.820627899E0,9.895148038E0
7.835415000E-1,1.204096069E0,4.984634399E-2,9.831405487E0,9.904991966E0
7.935725000E-1,1.208736420E0,5.748046875E-2,9.810299377E0,9.884650809E0
8.036045000E-1,1.187630310E0,7.214996338E-2,9.815688171E0,9.887537896E0
8.136355000E-1,1.185384979E0,7.574249268E-2,9.832153931E0,9.903642027E0
8.236675000E-1,1.190474396E0,7.738906860E-2,9.814490662E0,9.886730769E0
8.336985000E-1,1.181343384E0,7.289840698E-2,9.815239105E0,9.886344373E0
8.437305000E-1,1.194965057E0,6.062393188E-2,9.818681946E0,9.891315984E0
8.537615000E-1,1.209035797E0,4.969665527E-2,9.825867004E0,9.900095944E0
8.637935000E-1,1.207688599E0,3.233276367E-2,9.836644592E0,9.910556694E0
8.738245000E-1,1.220412140E0,3.592529297E-3,9.817185059E0,9.892751951E0
8.838565000E-1,1.235830078E0,-4.490661621E-3,9.803413696E0,9.881002796E0
8.938885000E-1,1.223854980E0,-4.041595459E-3,9.755513306E0,9.831982364E0
9.039195000E-1,1.220711517E0,-6.137237549E-3,9.732012177E0,9.808273817E0
9.139515000E-1,1.199156342E0,-2.080673218E-2,9.751621399E0,9.825096883E0
9.239830000E-1,1.234482880E0,-4.101470947E-2,9.810149689E0,9.887601686E0
9.340150000E-1,1.266965332E0,-3.592529297E-2,9.827812958E0,9.909207804E0
9.440460000E-1,1.275048523E0,-3.532653809E-2,9.821526031E0,9.904007789E0
9.540780000E-1,1.268911285E0,-3.547622681E-2,9.787097626E0,9.869076672E0
9.641090000E-1,1.254990234E0,-2.439926147E-2,9.784552917E0,9.864738801E0
9.741410000E-1,1.225651245E0,-3.308120728E-2,9.789342957E0,9.865827429E0
9.841720000E-1,1.228944397E0,-2.799179077E-2,9.792636108E0,9.869488833E0
9.942040000E-1,1.222507782E0,1.047821045E-2,9.732461243E0,9.808946779E0
1.004235000E0,1.194366302E0,3.023712158E-2,9.618997192E0,9.692911437E0
1.014267000E0,1.162482605E0,1.496887207E-2,9.741891632E0,9.811016382E0
1.024298000E0,1.229543152E0,-5.658233643E-2,9.894274750E0,9.970539140E0
1.034330000E0,1.322350159E0,-3.742218018E-2,9.918973389E0,1.000679986E1
1.044361000E0,1.343905334E0,-7.200027466E-2,9.859397278E0,9.950828120E0
1.054393000E0,1.283880157E0,-4.924758911E-2,9.800719299E0,9.884577501E0
1.064425000E0,1.240470428E0,-3.412902832E-2,9.746831360E0,9.825510329E0
1.074456000E0,1.231638794E0,-3.218307495E-2,9.795480194E0,9.872659323E0
1.084488000E0,1.244811401E0,6.137237549E-3,9.842482452E0,9.920889774E0
1.094519000E0,1.221759338E0,7.454498291E-2,9.801318054E0,9.877453540E0
1.104551000E0,1.219663696E0,1.172062683E-1,9.720336456E0,9.797257660E0
1.114582000E0,1.245559845E0,1.228944397E-1,9.695488129E0,9.775940488E0
1.124614000E0,1.252295837E0,1.203497314E-1,9.724078674E0,9.805122895E0
1.134645000E0,1.260828094E0,8.427474976E-2,9.787995758E0,9.869227461E0
1.144677000E0,1.260678406E0,5.224136353E-2,9.841734009E0,9.922286405E0
1.154708000E0,1.233584747E0,1.092727661E-2,9.845027161E0,9.922016455E0
1.164740000E0,1.225651245E0,-2.963836670E-2,9.857451324E0,9.933400527E0
1.174771000E0,1.219514008E0,-5.912704468E-2,9.855804749E0,9.931142818E0
1.184803000E0,1.252744904E0,-6.256988525E-2,9.823322296E0,9.903077588E0
1.194834000E0,1.252445526E0,-6.930587769E-2,9.773026886E0,9.853196315E0
1.204866000E0,1.248703308E0,-6.661148071E-2,9.736951904E0,9.816920567E0
1.214897000E0,1.262624359E0,-7.065307617E-2,9.738149414E0,9.819916809E0
1.224929000E0,1.237476654E0,-8.577163696E-2,9.748927002E0,9.827526796E0
1.234960000E0,1.255588989E0,-7.289840698E-2,9.763297119E0,9.843972192E0
1.244992000E0,1.276844788E0,-7.125183105E-2,9.793384552E0,9.876527245E0
1.255024000E0,1.272653503E0,-6.152206421E-2,9.809550934E0,9.891952357E0
1.265055000E0,1.279988251E0,-5.074447632E-2,9.819131012E0,9.902337035E0
1.275087000E0,1.279838562E0,-3.128494263E-2,9.785001984E0,9.868395478E0
1.285118000E0,1.291065216E0,7.484436035E-4,9.832602997E0,9.917002150E0
1.295150000E0,1.291065216E0,4.011657715E-2,9.831555176E0,9.916044368E0
1.305181000E0,1.284478912E0,4.505630493E-2,9.747280426E0,9.831652549E0
1.315213000E0,1.260528717E0,1.945953369E-2,9.756561127E0,9.837672303E0
1.325244000E0,1.273551636E0,5.239105225E-3,9.803114319E0,9.885495009E0
1.335276000E0,1.275347900E0,9.280700684E-3,9.857301636E0,9.939466481E0
1.345307000E0,1.251098328E0,1.556762695E-2,9.815987549E0,9.895408073E0
1.355339000E0,1.233884125E0,1.886077881E-2,9.764195251E0,9.841866422E0
1.365370000E0,1.269060974E0,-2.335144043E-2,9.805958405E0,9.887764220E0
1.375402000E0,1.302890625E0,-2.664459229E-2,9.860744476E0,9.946482571E0
1.385433000E0,1.336121521E0,-2.275268555E-2,9.845326538E0,9.935602299E0
1.395465000E0,1.330882416E0,-1.332229614E-2,9.755812683E0,9.846182336E0
1.405496000E0,1.303040314E0,-9.430389404E-3,9.705966339E0,9.793047818E0
1.415528000E0,1.287322998E0,1.496887207E-3,9.762848053E0,9.847355221E0
1.425560000E0,1.296603699E0,-3.742218018E-3,9.794432373E0,9.879883636E0
1.435591000E0,1.310375061E0,-2.439926147E-2,9.781559143E0,9.868970432E0
1.445623000E0,1.316063232E0,-1.676513672E-2,9.745933228E0,9.834404811E0
1.455654000E0,1.289119263E0,-3.966751099E-2,9.739346924E0,9.824371760E0
1.465686000E0,1.270857239E0,-6.256988525E-2,9.767189026E0,9.849719518E0
1.475717000E0,1.276844788E0,-5.807922363E-2,9.789193268E0,9.872284976E0
1.485749000E0,1.262175293E0,-8.412506104E-2,9.775122528E0,9.856631470E0
1.495780000E0,1.262025604E0,-8.577163696E-2,9.773925018E0,9.855438887E0
1.505812000E0,1.249002686E0,-9.205856323E-2,9.790241089E0,9.870020419E0
1.515843000E0,1.254990234E0,-9.684860229E-2,9.803713074E0,9.884187886E0
1.525875000E0,1.273252258E0,-6.795867920E-2,9.784852295E0,9.867579446E0
1.535906000E0,1.274898834E0,-7.424560547E-2,9.760602722E0,9.843792204E0
1.545938000E0,1.269510040E0,-7.634124756E-2,9.773775330E0,9.856174102E0
1.555969000E0,1.281335449E0,-6.047424316E-2,9.777517548E0,9.861304531E0
1.566001000E0,1.288520508E0,-5.643264771E-2,9.772577820E0,9.857319463E0
1.576032000E0,1.277593231E0,-2.020797729E-2,9.774374084E0,9.857537297E0
1.586064000E0,1.263821869E0,6.436614990E-3,9.756112061E0,9.837632321E0
1.596095000E0,1.259480896E0,9.729766846E-3,9.789342957E0,9.870036591E0
1.606127000E0,1.274599457E0,2.380050659E-2,9.819580078E0,9.901985819E0
1.616158000E0,1.300196228E0,3.158432007E-2,9.831405487E0,9.917058115E0
1.626190000E0,1.299298096E0,1.107696533E-2,9.836345215E0,9.921793458E0
1.636222000E0,1.303788757E0,1.751358032E-2,9.811646576E0,9.897907879E0
1.646253000E0,1.296903076E0,7.484436035E-3,9.785151672E0,9.870724738E0
1.656285000E0,1.264869690E0,-2.185455322E-2,9.804162140E0,9.885442237E0
1.666316000E0,1.270258484E0,-4.505630493E-2,9.810299377E0,9.892298042E0
1.676348000E0,1.271156616E0,-3.847000122E-2,9.757758636E0,9.840283161E0
1.686379000E0,1.247655487E0,-4.176315308E-2,9.679022369E0,9.759193737E0
1.696411000E0,1.246607666E0,-6.481521606E-2,9.714797974E0,9.794668517E0
1.706442000E0,1.270108795E0,-1.405577087E-1,9.850266266E0,9.932808179E0
1.716474000E0,1.364562378E0,-1.465452576E-1,9.882748718E0,9.977586292E0
1.726505000E0,1.388063507E0,-1.414558411E-1,9.829160156E0,9.927694568E0
1.736537000E0,1.363065491E0,-1.431024170E-1,9.795779572E0,9.891194228E0
1.746568000E0,1.337768097E0,-1.026864624E-1,9.729168091E0,9.821246343E0
1.756600000E0,1.301842804E0,-8.786727905E-2,9.712702332E0,9.799954180E0
1.766631000E0,1.295256500E0,-3.188369751E-2,9.759405212E0,9.845034082E0
1.776663000E0,1.280287628E0,3.008743286E-2,9.775421906E0,9.858951014E0
1.786694000E0,1.277144165E0,5.792953491E-2,9.739047546E0,9.822601497E0
1.796726000E0,1.299747162E0,7.768844604E-2,9.742640076E0,9.829263137E0
1.806757000E0,1.343456268E0,9.639953613E-2,9.747430115E0,9.840048854E0
1.816789000E0,1.339714050E0,7.888595581E-2,9.796528015E0,9.888023962E0
1.826820000E0,1.313668213E0,5.059478760E-2,9.844727783E0,9.932117052E0
1.836852000E0,1.285227356E0,7.634124756E-3,9.854607239E0,9.938065781E0
1.846884000E0,1.268761597E0,-3.682342529E-2,9.844578094E0,9.926068195E0
1.856915000E0,1.269360352E0,-7.738906860E-2,9.858050079E0,9.939739239E0
1.866947000E0,1.282982025E0,-9.595046997E-2,9.838440857E0,9.922205796E0
1.876978000E0,1.296454010E0,-8.562194824E-2,9.784403229E0,9.870292329E0
1.887010000E0,1.313219147E0,-8.128097534E-2,9.734856262E0,9.823368952E0
1.897041000E0,1.308728485E0,-8.607101440E-2,9.717043304E0,9.805157268E0
1.907073000E0,1.301693115E0,-8.173004150E-2,9.745184784E0,9.832075632E0
1.917104000E0,1.304537201E0,-1.052311707E-1,9.753267975E0,9.840687328E0
1.927135542E0,1.301693115E0,-1.101708984E-1,9.758207703E0,9.845260797E0
1.937166542E0,1.295106812E0,-1.209484863E-1,9.771979065E0,9.858169457E0
1.947198542E0,1.292711792E0,-1.309776306E-1,9.767338715E0,9.853383403E0
1.957229542E0,1.291663971E0,-1.276844788E-1,9.783355408E0,9.869080108E0
1.967261542E0,1.286125488E0,-9.864486694E-2,9.727521515E0,9.812671624E0
1.977292542E0,1.286275177E0,-5.897735596E-2,9.783505096E0,9.867874854E0
1.987324542E0,1.292861481E0,-1.930984497E-2,9.817933502E0,9.902710838E0
1.997355542E0,1.273252258E0,2.529739380E-2,9.733059998E0,9.816020996E0
2.007387542E0,1.279688873E0,1.781295776E-2,9.716145172E0,9.800071322E0
2.017418542E0,1.271605682E0,2.245330811E-2,9.701176300E0,9.784186566E0
2.027450542E0,1.241218872E0,1.152603149E-2,9.713450775E0,9.792440099E0
2.037482542E0,1.246607666E0,-1.796264648E-2,9.782008209E0,9.861137761E0
2.047513542E0,1.268462219E0,-6.062393188E-2,9.883347473E0,9.964598785E0
2.057545542E0,1.328487396E0,-4.894821167E-2,9.886940002E0,9.975913858E0
2.067576542E0,1.345851288E0,-3.338058472E-2,9.820328522E0,9.912178480E0
2.077608542E0,1.317709808E0,-1.332229614E-2,9.766739960E0,9.855239523E0
2.087639542E0,1.282982025E0,1.407073975E-2,9.722432098E0,9.806728648E0
2.097671542E0,1.281634827E0,3.098556519E-2,9.720935211E0,9.805107308E0
2.107702542E0,1.288969574E0,2.963836670E-2,9.768386536E0,9.853105932E0
2.117734542E0,1.321452026E0,2.155517578E-2,9.783954163E0,9.872814145E0
2.127765542E0,1.327888641E0,3.742218018E-3,9.754016418E0,9.843989971E0
2.137797542E0,1.306632843E0,-1.901046753E-2,9.760453033E0,9.847542546E0
2.147828542E0,1.294657745E0,-5.718109131E-2,9.777517548E0,9.863024777E0
2.157860542E0,1.298399963E0,-7.649093628E-2,9.794582062E0,9.880563298E0
2.167891542E0,1.283730469E0,-1.002914429E-1,9.786049805E0,9.870399843E0
2.177923542E0,1.267713776E0,-1.178050232E-1,9.753267975E0,9.836016085E0
2.187954542E0,1.247206421E0,-1.074765015E-1,9.771529999E0,9.851389423E0
2.197986542E0,1.250649261E0,-9.415420532E-2,9.787846069E0,9.867873087E0
2.208017542E0,1.257534943E0,-6.765930176E-2,9.791887665E0,9.872539489E0
2.218049542E0,1.274749146E0,-5.418731689E-2,9.768536224E0,9.851508596E0
2.228080542E0,1.281784515E0,-2.514770508E-2,9.795330505E0,9.878871578E0
2.238112542E0,1.279389496E0,-1.676513672E-2,9.788594513E0,9.871864114E0
2.248143542E0,1.268312531E0,1.886077881E-2,9.753567352E0,9.835702746E0
2.258175542E0,1.242117004E0,2.140548706E-2,9.745484161E0,9.824346003E0
2.268207542E0,1.229992218E0,3.682342529E-2,9.778265991E0,9.855390536E0
2.278238542E0,1.254990234E0,4.311035156E-2,9.821526031E0,9.901476283E0
2.288270542E0,1.279988251E0,6.990463257E-2,9.861043854E0,9.944015410E0
2.298301542E0,1.291514282E0,8.412506104E-2,9.828411713E0,9.913261974E0
2.308333542E0,1.243613892E0,1.041833496E-1,9.772128754E0,9.851493798E0
2.318364542E0,1.214574280E0,9.325607300E-2,9.763147430E0,9.838848262E0
2.328396542E0,1.196761322E0,4.700225830E-2,9.814939728E0,9.887744370E0
2.338427542E0,1.217118988E0,3.068618774E-2,9.824070740E0,9.899226544E0
2.348459542E0,1.229393463E0,3.607498169E-2,9.730215912E0,9.807640460E0
2.358490542E0,1.217717743E0,8.831634521E-3,9.723629608E0,9.799586076E0
2.368522542E0,1.254690857E0,-2.679428101E-2,9.840087433E0,9.919792728E0
2.378553542E0,1.340612183E0,-8.876541138E-2,9.944869537E0,1.003521552E1
2.388585542E0,1.389710083E0,-5.852828979E-2,9.854158173E0,9.951841687E0
2.398616542E0,1.324445801E0,-5.957611084E-2,9.718091125E0,9.808108947E0
2.408648542E0,1.257235565E0,-8.771759033E-2,9.717642059E0,9.799025606E0
2.418679542E0,1.251547394E0,-8.577163696E-2,9.734407196E0,9.814907596E0
2.428711542E0,1.296154633E0,-9.460327148E-2,9.759405212E0,9.845555175E0
2.438742542E0,1.342707825E0,-6.541397095E-2,9.780511322E0,9.872463979E0
2.448774542E0,1.336420898E0,-1.706451416E-2,9.770182800E0,9.861175587E0
2.458805542E0,1.298399963E0,3.068618774E-2,9.759405212E0,9.845444338E0
2.468837542E0,1.276096344E0,6.646179199E-2,9.744586029E0,9.828010782E0
2.478869542E0,1.283880157E0,1.098715210E-1,9.765392761E0,9.850041411E0
2.488900542E0,1.294058990E0,1.306782532E-1,9.806706848E0,9.892581295E0
2.498932542E0,1.289418640E0,1.365161133E-1,9.845625916E0,9.930638788E0
2.508963542E0,1.272054749E0,1.428030396E-1,9.830657043E0,9.913643825E0
2.518995542E0,1.254092102E0,1.101708984E-1,9.838291168E0,9.918510863E0
2.529026542E0,1.234333191E0,8.966354370E-2,9.819280701E0,9.896963749E0
2.539058542E0,1.252445526E0,9.325607300E-2,9.820927277E0,9.900905467E0
2.549089542E0,1.266366577E0,7.664062500E-2,9.793234863E0,9.875069984E0
2.559121542E0,1.274898834E0,5.912704468E-2,9.751172333E0,9.834339068E0
2.569152542E0,1.276545410E0,3.457809448E-2,9.750872955E0,9.834138865E0
2.579184542E0,1.248403931E0,1.227447510E-2,9.782457275E0,9.861801731E0
2.589215542E0,1.262175293E0,-1.841171265E-2,9.808802490E0,9.889693208E0
2.599247542E0,1.263372803E0,-1.511856079E-2,9.795330505E0,9.876479085E0
2.609278542E0,1.268162842E0,-4.340972900E-3,9.778116302E0,9.860010865E0
2.619310542E0,1.282233582E0,-5.538482666E-3,9.783654785E0,9.867322564E0
2.629341542E0,1.276844788E0,2.245330811E-3,9.773176575E0,9.856232445E0
2.639373542E0,1.280287628E0,1.287322998E-2,9.784103851E0,9.867521994E0
2.649404542E0,1.280437317E0,3.742218018E-2,9.756710815E0,9.840443388E0
2.659436542E0,1.273551636E0,5.987548828E-2,9.761949921E0,9.844855768E0
2.669467542E0,1.268911285E0,7.679031372E-2,9.853858795E0,9.935520407E0
2.679499542E0,1.238225098E0,9.879455566E-2,9.781259766E0,9.859817664E0
2.689530542E0,1.227297821E0,1.369651794E-1,9.727072449E0,9.805149556E0
2.699562542E0,1.232536926E0,9.984237671E-2,9.747130737E0,9.825256912E0
2.709593542E0,1.270557861E0,7.274871826E-2,9.818681946E0,9.900814351E0
2.719625542E0,1.292113037E0,6.047424316E-2,9.841584320E0,9.926227640E0
2.729656542E0,1.285826111E0,3.891906738E-2,9.833052063E0,9.916843064E0
2.739688542E0,1.279539185E0,3.203338623E-2,9.824669495E0,9.907692836E0
2.749720542E0,1.305585022E0,4.760101318E-2,9.823172607E0,9.909668924E0
2.759751542E0,1.318308563E0,5.882766724E-2,9.805808716E0,9.894204502E0
2.769783542E0,1.306183777E0,7.454498291E-2,9.778116302E0,9.865253744E0
2.779814542E0,1.286275177E0,7.978408813E-2,9.763596497E0,9.848283398E0
2.789846542E0,1.272204437E0,8.532257080E-2,9.775721283E0,9.858524772E0
2.799877542E0,1.284628601E0,7.529342651E-2,9.800419922E0,9.884541992E0
2.809909542E0,1.284628601E0,7.529342651E-2,9.814041595E0,9.898047897E0
2.819940542E0,1.302291870E0,5.748046875E-2,9.805958405E0,9.892223630E0
2.829972542E0,1.314117279E0,6.960525513E-2,9.806407471E0,9.894310314E0
2.840003542E0,1.303190002E0,5.598358154E-2,9.799821167E0,9.886249706E0
2.850035542E0,1.272952881E0,4.819976807E-2,9.762398987E0,9.845159533E0
2.860066542E0,1.233285370E0,5.643264771E-2,9.761051788E0,9.838816467E0
2.870098542E0,1.206940155E0,4.146377563E-2,9.752519531E0,9.827006716E0
2.880129542E0,1.215622101E0,3.592529297E-2,9.771380310E0,9.846771089E0
2.890161542E0,1.241967316E0,4.849914551E-2,9.794432373E0,9.872980325E0
2.900192542E0,1.244661713E0,2.993774414E-2,9.788145447E0,9.867009189E0
2.910224542E0,1.253193970E0,3.278182983E-2,9.802216187E0,9.882055046E0
2.920255542E0,1.265767822E0,4.131408691E-2,9.801617432E0,9.883095634E0
2.930288250E0,1.266067200E0,5.658233643E-2,9.799821167E0,9.881428167E0
2.940319250E0,1.277293854E0,6.960525513E-2,9.812245331E0,9.895275788E0
2.950351250E0,1.265618134E0,7.694000244E-2,9.797725525E0,9.879429866E0
2.960382250E0,1.253193970E0,8.202941895E-2,9.788744202E0,9.868978518E0
2.970414250E0,1.238524475E0,8.277786255E-2,9.786648560E0,9.865053729E0
2.980445250E0,1.252445526E0,8.397537231E-2,9.796528015E0,9.876620516E0
2.990477250E0,1.244811401E0,9.280700684E-2,9.815089417E0,9.894147200E0
3.000509250E0,1.269210663E0,6.810836792E-2,9.837991791E0,9.919758915E0
3.010540250E0,1.260977783E0,7.978408813E-2,9.798174591E0,9.879304418E0
3.020572250E0,1.246308289E0,9.101074219E-2,9.774673462E0,9.854227955E0
3.030603250E0,1.227148132E0,7.185058594E-2,9.759704590E0,9.836812935E0
3.040635250E0,1.228645020E0,6.616241455E-2,9.786049805E0,9.863098744E0
3.050666250E0,1.231938171E0,5.508544922E-2,9.816735992E0,9.893887588E0
3.060698250E0,1.265917511E0,7.185058594E-2,9.802814941E0,9.884477246E0
3.070729250E0,1.257834320E0,8.951385498E-2,9.765243073E0,9.846325821E0
3.080761250E0,1.231189728E0,9.190887451E-2,9.754465485E0,9.832287235E0
3.090792250E0,1.227896576E0,7.319778442E-2,9.811347198E0,9.888155630E0
3.100824250E0,1.224154358E0,6.062393188E-2,9.796528015E0,9.872901818E0
3.110855250E0,1.210832062E0,8.816665649E-2,9.687105560E0,9.762883886E0
3.120887250E0,1.220711517E0,7.858657837E-2,9.719887390E0,9.796556708E0
3.130918250E0,1.253343658E0,3.143463135E-2,9.902956696E0,9.982004297E0
3.140950250E0,1.337468719E0,5.673202515E-2,9.911039886E0,1.000103758E1
3.150981250E0,1.369651794E0,5.957611084E-2,9.874665527E0,9.969378849E0
3.161013250E0,1.310375061E0,8.921447754E-2,9.719288635E0,9.807630376E0
3.171044250E0,1.230291595E0,7.200027466E-2,9.704170074E0,9.782112159E0
3.181076250E0,1.237027588E0,3.966751099E-2,9.762249298E0,9.840392376E0
3.191107250E0,1.274599457E0,3.143463135E-2,9.861941986E0,9.944017883E0
3.201139250E0,1.308878174E0,5.328918457E-2,9.892029419E0,9.978389040E0
3.211170250E0,1.305884399E0,9.669891357E-2,9.822573853E0,9.909472329E0
3.221202250E0,1.266216888E0,1.472937012E-1,9.740095367E0,9.823159289E0
3.231233250E0,1.252146149E0,1.791773987E-1,9.728868713E0,9.810752314E0
3.241265250E0,1.259331207E0,1.953437805E-1,9.772727509E0,9.855469407E0
3.251297250E0,1.270557861E0,1.809736633E-1,9.809700623E0,9.893295460E0
3.261328250E0,1.268761597E0,1.498384094E-1,9.835447083E0,9.918075764E0
3.271360250E0,1.276844788E0,1.196012878E-1,9.854008484E0,9.937108245E0
3.281391250E0,1.273102570E0,1.001417542E-1,9.839338989E0,9.921865262E0
3.291423250E0,1.257684631E0,8.771759033E-2,9.816885681E0,9.897510267E0
3.301454250E0,1.246008911E0,4.879852295E-2,9.777966614E0,9.857157329E0
3.311486250E0,1.223405914E0,3.218307495E-2,9.762249298E0,9.838661959E0
3.321517250E0,1.233734436E0,4.056564331E-2,9.732161865E0,9.810133577E0
3.331549250E0,1.242566071E0,2.080673218E-2,9.738748169E0,9.817719657E0
3.341580250E0,1.254840546E0,2.993774414E-3,9.758357391E0,9.838707879E0
3.351612250E0,1.240769806E0,7.334747314E-3,9.757459259E0,9.836034501E0
3.361643250E0,1.259480896E0,7.933502197E-3,9.783355408E0,9.864096416E0
3.371675250E0,1.276695099E0,1.377136230E-2,9.801467743E0,9.884275894E0
3.381706250E0,1.301094360E0,2.484832764E-2,9.827363892E0,9.913150106E0
3.391738250E0,1.321452026E0,2.050735474E-2,9.841584320E0,9.929926381E0
3.401769250E0,1.321452026E0,2.140548706E-2,9.866582336E0,9.954704448E0
3.411801250E0,1.314416656E0,2.903961182E-2,9.848020935E0,9.935393841E0
3.421832250E0,1.284179535E0,5.254074097E-2,9.821226654E0,9.904966966E0
3.431864250E0,1.263073425E0,4.490661621E-2,9.849966888E0,9.930720960E0
3.441895250E0,1.241817627E0,7.544311523E-2,9.779613190E0,9.858429734E0
3.451927250E0,1.257534943E0,7.559280396E-2,9.789492645E0,9.870221611E0
3.461958250E0,1.286873932E0,2.395019531E-2,9.810449066E0,9.894520150E0
3.471990250E0,1.319206696E0,-1.945953369E-2,9.851164398E0,9.939120936E0
3.482021250E0,1.323847046E0,-2.948867798E-2,9.868228912E0,9.956675271E0
3.492053250E0,1.309327240E0,-2.065704346E-2,9.830806732E0,9.917637095E0
3.502084250E0,1.285975800E0,-1.422042847E-2,9.790690155E0,9.874793653E0
3.512116250E0,1.304686890E0,1.960922241E-2,9.733359375E0,9.820431616E0
3.522147250E0,1.294957123E0,5.388793945E-2,9.699978790E0,9.786184465E0
3.532179250E0,1.294807434E0,4.236190796E-2,9.719588013E0,9.805544960E0
3.542211250E0,1.280287628E0,5.224136353E-2,9.775721283E0,9.859340352E0
3.552242250E0,1.308129730E0,2.739303589E-2,9.820328522E0,9.907108864E0
3.562274250E0,1.318757629E0,1.062789917E-2,9.824968872E0,9.913084685E0
3.572305250E0,1.300196228E0,-2.395019531E-3,9.818831635E0,9.904542929E0
3.582337250E0,1.289268951E0,-2.859054565E-2,9.829758911E0,9.913989717E0
3.592368250E0,1.276246033E0,-2.754272461E-2,9.825118561E0,9.907699898E0
3.602400250E0,1.278042297E0,-1.571731567E-2,9.800419922E0,9.883413873E0
3.612431250E0,1.256487122E0,-2.110610962E-2,9.773326263E0,9.853786663E0
3.622463250E0,1.231339417E0,-1.556762695E-2,9.718689880E0,9.796395873E0
3.632494250E0,1.232536926E0,-2.035766602E-2,9.720635834E0,9.798485736E0
3.642526250E0,1.235680389E0,-3.577560425E-2,9.741442566E0,9.819566649E0
3.652557250E0,1.274150391E0,-4.984634399E-2,9.785001984E0,9.867735692E0
3.662589250E0,1.295256500E0,-3.667373657E-2,9.795929260E0,9.881258242E0
3.672620250E0,1.294657745E0,-3.712280273E-2,9.790390778E0,9.875690779E0
3.682652250E0,1.297651520E0,-4.580474854E-2,9.794282684E0,9.879978281E0
3.692683250E0,1.291663971E0,-3.263214111E-2,9.818681946E0,9.903331552E0
3.702715250E0,1.286125488E0,-3.382965088E-2,9.801916809E0,9.885991925E0
3.712746250E0,1.281485138E0,-1.975891113E-2,9.780810699E0,9.864423577E0
3.722778250E0,1.283880157E0,-4.790039062E-3,9.785301361E0,9.869168857E0
3.732809250E0,1.277892609E0,4.041595459E-3,9.768985291E0,9.852212922E0
3.742841250E0,1.273551636E0,8.981323242E-4,9.807754669E0,9.890095360E0
3.752872250E0,1.281485138E0,-8.681945801E-3,9.808503113E0,9.891865994E0
3.762904250E0,1.290915527E0,-7.484436035E-3,9.812844086E0,9.897395009E0
3.772935250E0,1.300345917E0,-1.691482544E-2,9.826615448E0,9.912293215E0
3.782967250E0,1.311722260E0,-2.110610962E-2,9.812694397E0,9.900001620E0
3.792998250E0,1.310075684E0,-1.302291870E-2,9.773625641E0,9.861045891E0
3.803030250E0,1.288520508E0,-5.837860107E-3,9.724378052E0,9.809375499E0
3.813061250E0,1.274449768E0,-4.340972900E-3,9.717642059E0,9.800857526E0
3.823093250E0,1.279988251E0,-2.918930054E-2,9.771979065E0,9.855495765E0
3.833125250E0,1.296004944E0,-3.293151855E-2,9.799970856E0,9.885349871E0
3.843156250E0,1.310375061E0,-3.233276367E-2,9.821226654E0,9.908310714E0
3.853188250E0,1.312770081E0,-3.353027344E-2,9.822124786E0,9.909521930E0
3.863219250E0,1.306932220E0,-2.095642090E-2,9.788744202E0,9.875627780E0
3.873251250E0,1.274599457E0,-2.529739380E-2,9.784403229E0,9.867106479E0
3.883282250E0,1.253493347E0,-5.972579956E-2,9.812844086E0,9.892761080E0
3.893314250E0,1.252744904E0,-4.266128540E-2,9.830207977E0,9.909802150E0
3.903345250E0,1.243763580E0,-3.622467041E-2,9.740694122E0,9.819846336E0
3.913377250E0,1.217418365E0,-3.068618774E-2,9.650731201E0,9.727263841E0
3.923407625E0,1.229842529E0,-6.436614990E-2,9.776619415E0,9.853879583E0
3.933439625E0,1.312321014E0,-1.378633118E-1,9.883946228E0,9.971639072E0
3.943470625E0,1.391206970E0,-1.282832336E-1,9.878407745E0,9.976715542E0
3.953502625E0,1.394799500E0,-1.281335449E-1,9.834998016E0,9.934237255E0
3.963533625E0,1.344653778E0,-9.520202637E-2,9.760003967E0,9.852656223E0
3.973565625E0,1.287772064E0,-8.262817383E-2,9.715546417E0,9.800868660E0
3.983596625E0,1.275796967E0,-6.227050781E-2,9.778864746E0,9.861933443E0
3.993628625E0,1.288819885E0,-5.688171387E-3,9.805958405E0,9.890293690E0
4.003659625E0,1.266665955E0,5.927673340E-2,9.758956146E0,9.840994941E0
4.013691625E0,1.281036072E0,8.053253174E-2,9.707912292E0,9.792400114E0
4.023722625E0,1.290167084E0,1.041833496E-1,9.729018402E0,9.814743213E0
4.033754625E0,1.285975800E0,7.858657837E-2,9.787247314E0,9.871682714E0
4.043785625E0,1.288819885E0,6.182144165E-2,9.862391052E0,9.946438350E0
4.053817625E0,1.272653503E0,1.212478638E-2,9.876910858E0,9.958572290E0
4.063848625E0,1.259031830E0,-2.978805542E-2,9.862391052E0,9.942474830E0
4.073880625E0,1.242566071E0,-7.664062500E-2,9.848919067E0,9.927288201E0
4.083911625E0,1.271306305E0,-1.127156067E-1,9.828711090E0,9.911230308E0
4.093943625E0,1.282982025E0,-1.350192261E-1,9.777517548E0,9.862257473E0
4.103974625E0,1.292711792E0,-1.463955688E-1,9.719438324E0,9.806121393E0
4.114006625E0,1.298998718E0,-1.299298096E-1,9.712253265E0,9.799599120E0
4.124037625E0,1.298100586E0,-1.284329224E-1,9.720336456E0,9.807471691E0
4.134069625E0,1.285676422E0,-1.255888367E-1,9.735005951E0,9.820339978E0
4.144100625E0,1.299896851E0,-1.342707825E-1,9.747430115E0,9.834640528E0
4.154132625E0,1.301842804E0,-1.371148682E-1,9.756261749E0,9.843690288E0
4.164164625E0,1.289418640E0,-1.197509766E-1,9.767937469E0,9.853402617E0
4.174195625E0,1.315314789E0,-9.205856323E-2,9.792037354E0,9.880411090E0
4.184227625E0,1.304237823E0,-5.987548828E-2,9.784702606E0,9.871424743E0
4.194258625E0,1.282832336E0,-2.859054565E-2,9.760602722E0,9.844584385E0
4.204290625E0,1.272354126E0,3.742218018E-3,9.835596771E0,9.917553270E0
4.214321625E0,1.259480896E0,2.679428101E-2,9.810748444E0,9.891298958E0
4.224353625E0,1.270108795E0,5.987548828E-2,9.787397003E0,9.869645461E0
4.234384625E0,1.278940430E0,5.343887329E-2,9.768835602E0,9.852344561E0
4.244416625E0,1.262474670E0,7.259902954E-2,9.770931244E0,9.852421544E0
4.254447625E0,1.235530701E0,5.792953491E-2,9.752669220E0,9.830790856E0
4.264479625E0,1.228046265E0,3.577560425E-2,9.769883423E0,9.846826881E0
4.274510625E0,1.262324982E0,-1.975891113E-2,9.834249573E0,9.914954333E0
4.284542625E0,1.337917786E0,-3.577560425E-2,9.888885956E0,9.979046515E0
4.294573625E0,1.370849304E0,-5.014572144E-2,9.854307861E0,9.949327909E0
4.304605625E0,1.343306580E0,-5.433700562E-2,9.790091400E0,9.881969171E0
4.314636625E0,1.304686890E0,-5.538482666E-2,9.771679688E0,9.858549552E0
4.324668625E0,1.267564087E0,-3.712280273E-2,9.744436340E0,9.826603503E0
4.334699625E0,1.255588989E0,-5.149291992E-2,9.772727509E0,9.853190254E0
4.344731625E0,1.272354126E0,-5.538482666E-2,9.772727509E0,9.855361762E0
4.354762625E0,1.304836578E0,-4.819976807E-2,9.739646301E0,9.826781354E0
4.364794625E0,1.308279419E0,-3.817062378E-2,9.726473694E0,9.814139929E0
4.374825625E0,1.255738678E0,-5.583389282E-2,9.754615173E0,9.835268895E0
4.384857625E0,1.255439301E0,-4.400848389E-2,9.777816925E0,9.858182814E0
4.394888625E0,1.261875916E0,-4.475692749E-2,9.778864746E0,9.860047146E0
4.404920625E0,1.251248016E0,-4.086502075E-2,9.768236847E0,9.848133968E0
4.414951625E0,1.246158600E0,-2.619552612E-2,9.757459259E0,9.836747870E0
4.424983625E0,1.239272919E0,-1.466949463E-2,9.755513306E0,9.833923552E0
4.435014625E0,1.249002686E0,-2.395019531E-3,9.773625641E0,9.853109743E0
4.445046625E0,1.268911285E0,1.347198486E-2,9.782307587E0,9.864271847E0
4.455077625E0,1.281185760E0,1.571731567E-2,9.789492645E0,9.872985883E0
4.465109625E0,1.271306305E0,3.248245239E-2,9.812245331E0,9.894313178E0
4.475140625E0,1.281634827E0,3.592529297E-2,9.805958405E0,9.889423577E0
4.485172625E0,1.262774048E0,3.772155762E-2,9.795031128E0,9.876166058E0
4.495203625E0,1.260079651E0,5.822891235E-2,9.806856537E0,9.887650199E0
4.505235625E0,1.263372803E0,4.430786133E-2,9.800120544E0,9.881317559E0
4.515266625E0,1.245709534E0,5.912704468E-2,9.794731750E0,9.873806678E0
4.525298625E0,1.262624359E0,6.406677246E-2,9.794582062E0,9.875837311E0
4.535330625E0,1.277593231E0,7.125183105E-2,9.800270233E0,9.883451721E0
4.545361625E0,1.289418640E0,4.296066284E-2,9.792486420E0,9.877106678E0
4.555393625E0,1.271455994E0,1.407073975E-2,9.801018677E0,9.883155641E0
4.565424625E0,1.281185760E0,-3.143463135E-3,9.810449066E0,9.893753469E0
4.575456625E0,1.289418640E0,-1.990859985E-2,9.814041595E0,9.898404377E0
4.585487625E0,1.284329224E0,-6.436614990E-3,9.768536224E0,9.852605896E0
4.595519625E0,1.270258484E0,-2.694396973E-3,9.720785522E0,9.803429759E0
4.605550625E0,1.254990234E0,3.442840576E-3,9.728569336E0,9.809183129E0
4.615582625E0,1.273252258E0,3.293151855E-3,9.773176575E0,9.855767982E0
4.625613625E0,1.301693115E0,1.496887207E-3,9.815688171E0,9.901623174E0
4.635645625E0,1.322649536E0,7.185058594E-3,9.803413696E0,9.892238044E0
4.645676625E0,1.300794983E0,3.278182983E-2,9.743538208E0,9.830039626E0
4.655708625E0,1.246907043E0,3.847000122E-2,9.736951904E0,9.816541626E0
4.665739625E0,1.246308289E0,1.317260742E-2,9.773475952E0,9.852628586E0
4.675771625E0,1.269210663E0,2.888992310E-2,9.795031128E0,9.876961331E0
4.685802625E0,1.250649261E0,5.179229736E-2,9.690249023E0,9.770759037E0
4.695834625E0,1.234183502E0,4.715194702E-2,9.732461243E0,9.810516503E0
4.705865625E0,1.283431091E0,2.035766602E-2,9.893975372E0,9.976891223E0
4.715897625E0,1.359023895E0,2.724334717E-2,9.923164673E0,1.001583173E1
4.725928625E0,1.371148682E0,5.164260864E-2,9.868977356E0,9.963906348E0
4.735960625E0,1.295406189E0,5.089416504E-2,9.742490387E0,9.828366413E0
4.745991625E0,1.203048248E0,3.128494263E-2,9.720186768E0,9.794403230E0
4.756023625E0,1.206191711E0,-1.047821045E-2,9.786648560E0,9.860704755E0
4.766054625E0,1.248104553E0,-4.056564331E-2,9.855205994E0,9.934007033E0
4.776086625E0,1.291364594E0,-1.032852173E-2,9.857750702E0,9.941980592E0
4.786117625E0,1.269510040E0,2.170486450E-2,9.808952179E0,9.890787112E0
4.796149625E0,1.229243774E0,8.502319336E-2,9.757010193E0,9.834506449E0
4.806180625E0,1.220412140E0,1.155596924E-1,9.727820892E0,9.804756965E0
4.816212625E0,1.245410156E0,1.164578247E-1,9.754615173E0,9.834486568E0
4.826243625E0,1.267863464E0,1.347198486E-1,9.780211945E0,9.862969780E0
4.836275625E0,1.278940430E0,1.414558411E-1,9.812844086E0,9.896848358E0
4.846306625E0,1.289418640E0,1.222956848E-1,9.828262024E0,9.913238173E0
4.856338625E0,1.291963348E0,1.115180969E-1,9.828411713E0,9.913590791E0
4.866369625E0,1.278191986E0,1.008901978E-1,9.833501129E0,9.916738276E0
4.876401625E0,1.271455994E0,6.631210327E-2,9.801916809E0,9.884258737E0
4.886433625E0,1.260079651E0,5.882766724E-2,9.760453033E0,9.841631208E0
4.896464625E0,1.247655487E0,3.637435913E-2,9.748178558E0,9.827764370E0
4.906496625E0,1.234482880E0,1.586700439E-2,9.761650543E0,9.839411622E0
4.916527625E0,1.243015137E0,1.197509766E-3,9.789792023E0,9.868389732E0
4.926559625E0,1.250050507E0,-1.137634277E-2,9.806557159E0,9.885915183E0
4.936590625E0,1.276246033E0,-2.993774414E-4,9.813891907E0,9.896528603E0
4.946622625E0,1.267115021E0,1.017883301E-2,9.814490662E0,9.895954276E0
4.956653625E0,1.275946655E0,3.921844482E-2,9.818382568E0,9.901020867E0
4.966685625E0,1.276695099E0,4.071533203E-2,9.812993774E0,9.895779652E0
4.976716625E0,1.267564087E0,5.987548828E-2,9.805060272E0,9.886835223E0
4.986748625E0,1.254990234E0,8.741821289E-2,9.788594513E0,9.869104568E0
4.996779625E0,1.250499573E0,9.744735718E-2,9.754615173E0,9.834925640E0
5.006811625E0,1.229243774E0,1.299298096E-1,9.805808716E0,9.883410676E0
5.016842625E0,1.202898560E0,1.558259583E-1,9.758058014E0,9.833155286E0
5.026874625E0,1.214873657E0,1.695973206E-1,9.720037079E0,9.797132339E0
5.036905625E0,1.228046265E0,1.398092651E-1,9.763446808E0,9.841368697E0
5.046937625E0,1.265019379E0,1.056802368E-1,9.836345215E0,9.917919617E0
5.056968625E0,1.279688873E0,8.277786255E-2,9.868528290E0,9.951497696E0
5.067000625E0,1.265468445E0,5.852828979E-2,9.853110352E0,9.934214591E0
5.077031625E0,1.258582764E0,6.167175293E-2,9.831106110E0,9.911532743E0
5.087063625E0,1.262923737E0,6.122268677E-2,9.805060272E0,9.886249619E0
5.097094625E0,1.276994476E0,1.001417542E-1,9.792336731E0,9.875758296E0
5.107126625E0,1.268462219E0,1.540296936E-1,9.755513306E0,9.838839434E0
5.117157625E0,1.234632568E0,1.854643250E-1,9.704768829E0,9.784745915E0
5.127189625E0,1.229692841E0,1.924996948E-1,9.693691864E0,9.773272869E0
5.137220625E0,1.221759338E0,1.821711731E-1,9.721084900E0,9.799253739E0
5.147252625E0,1.237476654E0,1.480421448E-1,9.768236847E0,9.847421797E0
5.157283625E0,1.295705566E0,8.726852417E-2,9.875114594E0,9.960138400E0
5.167315625E0,1.350940704E0,3.891906738E-3,9.936337280E0,1.002775421E1
5.177346625E0,1.362167358E0,-2.424957275E-2,9.950707397E0,1.004353850E1
5.187378625E0,1.326541443E0,-8.786727905E-2,9.915680237E0,1.000440640E1
5.197409625E0,1.278191986E0,-1.125659180E-1,9.863438873E0,9.946550771E0
5.207441625E0,1.231489105E0,-1.210981750E-1,9.802066498E0,9.879865273E0
5.217472625E0,1.205293579E0,-1.212478638E-1,9.803264008E0,9.877824602E0
5.227504625E0,1.225052490E0,-1.118174744E-1,9.789342957E0,9.866331247E0
5.237535625E0,1.243164825E0,-7.304809570E-2,9.776170349E0,9.855166234E0
5.247567625E0,1.245709534E0,-5.254074097E-2,9.761650543E0,9.840953922E0
5.257598625E0,1.239272919E0,-1.751358032E-2,9.779912567E0,9.858133389E0
5.267630625E0,1.256337433E0,-1.646575928E-3,9.805659027E0,9.885814858E0
5.277662625E0,1.273851013E0,2.769241333E-2,9.818981323E0,9.901305848E0
5.287693625E0,1.278042297E0,4.460723877E-2,9.824370117E0,9.907251391E0
5.297724625E0,1.262025604E0,6.855743408E-2,9.803862762E0,9.884995388E0
5.307756625E0,1.267863464E0,9.744735718E-2,9.811496887E0,9.893555727E0
5.317788625E0,1.249302063E0,1.025367737E-1,9.812095642E0,9.891839582E0
5.327819625E0,1.240919495E0,1.068777466E-1,9.805808716E0,9.884593498E0
5.337851625E0,1.243164825E0,9.774673462E-2,9.791887665E0,9.870971444E0
5.347882625E0,1.245260468E0,6.092330933E-2,9.805060272E0,9.884006891E0
5.357914625E0,1.260379028E0,3.996688843E-2,9.846074982E0,9.926497126E0
5.367945625E0,1.266815643E0,2.454895020E-2,9.832153931E0,9.913459307E0
5.377977625E0,1.281185760E0,-5.538482666E-3,9.824370117E0,9.907558520E0
5.388008625E0,1.293460236E0,-4.655319214E-2,9.853709106E0,9.938349447E0
5.398040625E0,1.291514282E0,-6.915618896E-2,9.827064514E0,9.911810565E0
5.408071625E0,1.300645294E0,-8.442443848E-2,9.800569611E0,9.886858468E0
5.418103625E0,1.292711792E0,-9.669891357E-2,9.749376068E0,9.835181146E0
5.428134625E0,1.262025604E0,-9.879455566E-2,9.708810425E0,9.790989166E0
5.438166625E0,1.249152374E0,-1.166075134E-1,9.715097351E0,9.795769266E0
5.448197625E0,1.279688873E0,-9.789642334E-2,9.758207703E0,9.842245927E0
5.458229625E0,1.326391754E0,-5.897735596E-2,9.783954163E0,9.873629144E0
5.468260625E0,1.313069458E0,-3.547622681E-2,9.773775330E0,9.861647639E0
5.478292625E0,1.301244049E0,-2.365081787E-2,9.737850037E0,9.824434781E0
5.488323625E0,1.292262726E0,-1.631607056E-2,9.741741943E0,9.827092411E0
5.498355625E0,1.268312531E0,-2.200424194E-2,9.778415680E0,9.860350606E0
5.508386625E0,1.256337433E0,-3.742218018E-2,9.804760895E0,9.884994708E0
5.518418625E0,1.256936188E0,-5.388793945E-3,9.785301361E0,9.865700195E0
5.528449625E0,1.218017120E0,1.556762695E-2,9.690249023E0,9.766510850E0
5.538481625E0,1.217568054E0,1.167572021E-2,9.744136963E0,9.819919218E0
5.548512625E0,1.241518250E0,-4.924758911E-2,9.867779846E0,9.945696154E0
5.558544625E0,1.323847046E0,-5.583389282E-2,9.901759186E0,9.990021191E0
5.568575625E0,1.361269226E0,-7.155120850E-2,9.860145721E0,9.953926217E0
5.578607625E0,1.330732727E0,-6.900650024E-2,9.830357666E0,9.920259237E0
5.588638625E0,1.284628601E0,-5.763015747E-2,9.779164124E0,9.863348459E0
5.598670625E0,1.285377045E0,-3.727249146E-2,9.787546692E0,9.871659112E0
5.608701625E0,1.292711792E0,-2.095642090E-3,9.828561401E0,9.913209742E0
5.618733625E0,1.271605682E0,5.313949585E-2,9.778715057E0,9.861190242E0
5.628764625E0,1.272354126E0,7.619155884E-2,9.707313538E0,9.790639728E0
5.638796625E0,1.258882141E0,6.930587769E-2,9.677076416E0,9.758862409E0
5.648827625E0,1.295106812E0,5.792953491E-2,9.730515289E0,9.816495570E0
5.658859625E0,1.317410431E0,5.089416504E-2,9.806257782E0,9.894485947E0
5.668890625E0,1.310824127E0,2.245330811E-3,9.861792297E0,9.948528145E0
5.678922625E0,1.305884399E0,-2.604583740E-2,9.838889923E0,9.925208681E0
5.688953625E0,1.298998718E0,-7.274871826E-2,9.829609222E0,9.915336984E0
5.698985625E0,1.307980042E0,-8.816665649E-2,9.822424164E0,9.909520755E0
5.709016625E0,1.298399963E0,-1.047821045E-1,9.776020660E0,9.862423724E0
5.719048625E0,1.295256500E0,-1.148112488E-1,9.733509064E0,9.819983183E0
5.729080625E0,1.297801208E0,-9.520202637E-2,9.710606689E0,9.797409539E0
5.739111625E0,1.287173309E0,-9.190887451E-2,9.730814667E0,9.816008173E0
5.749143625E0,1.298399963E0,-8.128097534E-2,9.759255524E0,9.845583651E0
5.759174625E0,1.296304321E0,-7.469467163E-2,9.774224396E0,9.860093647E0
5.769206625E0,1.301693115E0,-6.256988525E-2,9.796827393E0,9.883124350E0
5.779237625E0,1.311722260E0,-6.556365967E-2,9.819729767E0,9.907169453E0
5.789269625E0,1.321901093E0,-4.370910645E-2,9.821675720E0,9.910330314E0
5.799300625E0,1.308429108E0,-3.891906738E-2,9.836494904E0,9.923211850E0
5.809332625E0,1.309177551E0,-3.323089600E-2,9.785301361E0,9.872546423E0
5.819363625E0,1.291813660E0,2.395019531E-3,9.752669220E0,9.837852671E0
5.829395625E0,1.287173309E0,2.260299683E-2,9.827363892E0,9.911327211E0
5.839426625E0,1.291065216E0,4.924758911E-2,9.779912567E0,9.864885430E0
5.849458625E0,1.302142181E0,4.026626587E-2,9.747879181E0,9.834548498E0
5.859489625E0,1.306183777E0,9.131011963E-3,9.754914551E0,9.841979340E0
5.869521625E0,1.299148407E0,-1.137634277E-2,9.782756653E0,9.868649539E0
5.879552625E0,1.286574554E0,-3.487747192E-2,9.800419922E0,9.884569852E0
5.889584625E0,1.299747162E0,-6.092330933E-2,9.817933502E0,9.903780722E0
5.899615625E0,1.316063232E0,-8.906478882E-2,9.857601013E0,9.945463926E0
5.909647625E0,1.350042572E0,-7.274871826E-2,9.834548950E0,9.927046911E0
5.919678625E0,1.364861755E0,-5.358856201E-2,9.789792023E0,9.884621753E0
5.929710792E0,1.349743195E0,-3.382965088E-2,9.739646301E0,9.832785018E0
5.939741792E0,1.322050781E0,-3.772155762E-2,9.718989258E0,9.808567346E0
5.949773792E0,1.290167084E0,-2.140548706E-2,9.743238831E0,9.828310750E0
5.959804792E0,1.286275177E0,-2.424957275E-2,9.770781555E0,9.855113600E0
5.969836792E0,1.331181793E0,-2.574645996E-2,9.782307587E0,9.872499662E0
5.979867792E0,1.342558136E0,-5.134323120E-2,9.763895874E0,9.855899813E0
5.989899792E0,1.341660004E0,-6.915618896E-2,9.765841827E0,9.857814197E0
5.999930792E0,1.314566345E0,-7.888595581E-2,9.763746185E0,9.852159522E0
6.009962792E0,1.287772064E0,-8.996292114E-2,9.795929260E0,9.880621453E0
6.019993792E0,1.287921753E0,-8.487350464E-2,9.777667236E0,9.862490686E0
6.030025792E0,1.283580780E0,-8.547225952E-2,9.764794006E0,9.849166823E0
6.040056792E0,1.279239807E0,-8.427474976E-2,9.769733734E0,9.853489430E0
6.050088792E0,1.296454010E0,-9.789642334E-2,9.763446808E0,9.849633002E0
6.060119792E0,1.298549652E0,-1.041833496E-1,9.766889648E0,9.853386158E0
6.070151792E0,1.303040314E0,-1.025367737E-1,9.767039337E0,9.854110070E0
6.080182792E0,1.293011169E0,-1.148112488E-1,9.776469727E0,9.862272549E0
6.090214792E0,1.287622375E0,-1.014889526E-1,9.786498871E0,9.871364219E0
6.100245792E0,1.289718018E0,-9.924362183E-2,9.783205719E0,9.868350217E0
6.110277792E0,1.286574554E0,-9.415420532E-2,9.786199493E0,9.870858100E0
6.120308792E0,1.287622375E0,-8.143066406E-2,9.767937469E0,9.852776499E0
6.130340792E0,1.287622375E0,-6.002517700E-2,9.773026886E0,9.857668534E0
6.140371792E0,1.298998718E0,-4.909790039E-2,9.786349182E0,9.872306650E0
6.150403792E0,1.303190002E0,-4.535568237E-2,9.779014435E0,9.865570670E0
6.160434792E0,1.292562103E0,-3.802093506E-2,9.753717041E0,9.839062887E0
6.170466792E0,1.283281403E0,-4.625381470E-2,9.728868713E0,9.813248036E0
6.180497792E0,1.262175293E0,-5.433700562E-2,9.757908325E0,9.839350276E0
6.190529792E0,1.280287628E0,-4.894821167E-2,9.783654785E0,9.867189736E0
6.200560792E0,1.309327240E0,-5.149291992E-2,9.811796265E0,9.898905762E0
6.210592792E0,1.320553894E0,-5.777984619E-2,9.818981323E0,9.907552439E0
6.220623792E0,1.316212921E0,-5.134323120E-2,9.766290894E0,9.854719194E0
6.230655792E0,1.297801208E0,-5.568420410E-2,9.770332489E0,9.856306897E0
6.240686792E0,1.264869690E0,-7.798782349E-2,9.785151672E0,9.866872386E0
6.250718792E0,1.264720001E0,-7.903564453E-2,9.776170349E0,9.857954657E0
6.260749792E0,1.257834320E0,-5.718109131E-2,9.724827118E0,9.806002209E0
6.270781792E0,1.239272919E0,-5.718109131E-2,9.636211395E0,9.715741716E0
6.280813792E0,1.230141907E0,-5.987548828E-2,9.711504822E0,9.789288028E0
6.290844792E0,1.312470703E0,-1.240919495E-1,9.898316345E0,9.985722038E0
6.300876792E0,1.406175842E0,-1.206491089E-1,9.923314362E0,1.002317588E1
6.310907792E0,1.395697632E0,-9.759704590E-2,9.808503113E0,9.907786351E0
6.320939792E0,1.297052765E0,-1.005908203E-1,9.751771088E0,9.838165669E0
6.330970792E0,1.234333191E0,-7.544311523E-2,9.722432098E0,9.800763031E0
6.341002792E0,1.235081635E0,-8.607101440E-2,9.707313538E0,9.785947628E0
6.351033792E0,1.252146149E0,-7.888595581E-2,9.765243073E0,9.845509902E0
6.361065792E0,1.274599457E0,-3.053649902E-2,9.783654785E0,9.866379134E0
6.371096792E0,1.285526733E0,1.496887207E-3,9.777816925E0,9.861961521E0
6.381128792E0,1.277593231E0,3.757186890E-2,9.765841827E0,9.849128018E0
6.391159792E0,1.285227356E0,4.445755005E-2,9.791887665E0,9.875973363E0
6.401191792E0,1.296304321E0,4.700225830E-2,9.830058289E0,9.915274079E0
6.411222792E0,1.293759613E0,4.505630493E-2,9.867630157E0,9.952184129E0
6.421254792E0,1.298250275E0,3.397933960E-2,9.861642609E0,9.946788593E0
6.431285792E0,1.278940430E0,1.541793823E-2,9.833950195E0,9.916778851E0
6.441317792E0,1.274000702E0,-1.167572021E-2,9.815688171E0,9.898027500E0
6.451348792E0,1.282682648E0,-1.706451416E-2,9.785151672E0,9.868878316E0
6.461380792E0,1.290017395E0,-2.275268555E-2,9.749675446E0,9.834675076E0
6.471411792E0,1.285526733E0,-3.113525391E-2,9.730066223E0,9.814669485E0
6.481443792E0,1.294358368E0,-4.370910645E-2,9.751621399E0,9.837245243E0
6.491474792E0,1.290167084E0,-3.921844482E-2,9.752818909E0,9.837862870E0
6.501506792E0,1.277742920E0,-4.939727783E-2,9.776320038E0,9.859589268E0
6.511537792E0,1.276545410E0,-3.667373657E-2,9.791139221E0,9.874073141E0
6.521569792E0,1.288819885E0,-3.742218018E-2,9.788594513E0,9.873147404E0
6.531600792E0,1.273401947E0,-3.472778320E-2,9.763895874E0,9.846645174E0
6.541632792E0,1.271755371E0,-3.637435913E-2,9.776619415E0,9.859055330E0
6.551663792E0,1.264869690E0,-2.065704346E-2,9.792935486E0,9.874305417E0
6.561695792E0,1.269060974E0,-1.466949463E-2,9.776619415E0,9.858651943E0
6.571726792E0,1.248703308E0,1.826202393E-2,9.788893890E0,9.868233735E0
6.581758792E0,1.241368561E0,4.610412598E-2,9.882000275E0,9.959771630E0
6.591789792E0,1.254541168E0,7.574249268E-2,9.815837860E0,9.895973088E0
6.601821792E0,1.265767822E0,9.131011963E-2,9.747130737E0,9.829397913E0
6.611852792E0,1.254092102E0,9.310638428E-2,9.715845795E0,9.796891104E0
6.621884792E0,1.255139923E0,6.900650024E-2,9.740245056E0,9.821023973E0
6.631915792E0,1.262324982E0,3.592529297E-2,9.818981323E0,9.899856020E0
6.641947792E0,1.302740936E0,-6.436614990E-3,9.859996033E0,9.945687364E0
6.651978792E0,1.320254517E0,-1.107696533E-2,9.873917084E0,9.961798696E0
6.662010792E0,1.347048798E0,-2.814147949E-2,9.851014709E0,9.942727152E0
6.672041792E0,1.340312805E0,-2.664459229E-2,9.815987549E0,9.907106536E0
6.682073792E0,1.294657745E0,1.242416382E-2,9.759405212E0,9.844911535E0
6.692104792E0,1.274749146E0,3.906875610E-2,9.738598480E0,9.821751988E0
6.702136792E0,1.249601440E0,4.475692749E-2,9.756561127E0,9.836360707E0
6.712167792E0,1.282383270E0,5.343887329E-2,9.797575836E0,9.881288116E0
6.722199792E0,1.308279419E0,5.239105225E-2,9.776469727E0,9.863756900E0
6.732230792E0,1.310225372E0,5.792953491E-2,9.776020660E0,9.863601082E0
6.742262792E0,1.305135956E0,5.284011841E-2,9.786798248E0,9.873580500E0
6.752293792E0,1.296753387E0,2.574645996E-2,9.805509338E0,9.890917329E0
6.762325792E0,1.284927979E0,2.484832764E-2,9.784103851E0,9.868148029E0
6.772356792E0,1.260379028E0,2.544708252E-2,9.738748169E0,9.820000955E0
6.782388792E0,1.226250000E0,2.769241333E-2,9.755962372E0,9.832764501E0
6.792419792E0,1.243164825E0,3.592529297E-3,9.790390778E0,9.869003155E0
6.802451792E0,1.276395721E0,2.424957275E-2,9.783355408E0,9.866297031E0
6.812482792E0,1.287622375E0,3.607498169E-2,9.802515564E0,9.886788365E0
6.822514792E0,1.262175293E0,2.424957275E-2,9.803264008E0,9.884212650E0
6.832545792E0,1.275647278E0,2.649490356E-2,9.807754669E0,9.890400882E0
6.842577792E0,1.266216888E0,1.781295776E-2,9.809401245E0,9.890802561E0
6.852608792E0,1.261127472E0,1.317260742E-2,9.791887665E0,9.872774689E0
6.862640792E0,1.263971558E0,3.847000122E-2,9.786947937E0,9.868305526E0
6.872671792E0,1.265917511E0,4.056564331E-2,9.795180817E0,9.876728201E0
6.882703792E0,1.252894592E0,5.673202515E-2,9.781409454E0,9.861487428E0
6.892735792E0,1.255888367E0,5.628295898E-2,9.805808716E0,9.886066353E0
6.902766792E0,1.253643036E0,7.170089722E-2,9.812694397E0,9.892711115E0
6.912798792E0,1.246907043E0,5.553451538E-2,9.812544708E0,9.891607297E0
6.922829792E0,1.259031830E0,6.301895142E-2,9.800120544E0,9.880865105E0
6.932862000E0,1.270108795E0,5.224136353E-2,9.804311829E0,9.886376280E0
6.942893000E0,1.280736694E0,5.059478760E-2,9.811496887E0,9.894863187E0
6.952925000E0,1.281036072E0,5.149291992E-2,9.791737976E0,9.875314553E0
6.962956000E0,1.291514282E0,5.478607178E-2,9.780211945E0,9.865270211E0
6.972988000E0,1.280137939E0,3.592529297E-2,9.794282684E0,9.877652407E0
6.983019000E0,1.295855255E0,3.113525391E-2,9.804461517E0,9.889776332E0
6.993051000E0,1.290915527E0,3.802093506E-2,9.786498871E0,9.871345837E0
7.003082000E0,1.271156616E0,4.685256958E-2,9.738598480E0,9.821320414E0
7.013114000E0,1.252894592E0,5.658233643E-2,9.747879181E0,9.828229492E0
7.023145000E0,1.270108795E0,4.849914551E-2,9.787546692E0,9.869731443E0
7.033177000E0,1.279838562E0,6.227050781E-2,9.820627899E0,9.903867764E0
7.043208000E0,1.283281403E0,8.158035278E-2,9.806557159E0,9.890502001E0
7.053240000E0,1.274449768E0,1.080752563E-1,9.772278442E0,9.855624203E0
7.063271000E0,1.249751129E0,1.092727661E-1,9.760752411E0,9.841041919E0
7.073303000E0,1.242266693E0,1.076261902E-1,9.789642334E0,9.868733807E0
7.083334000E0,1.242865448E0,9.924362183E-2,9.796228638E0,9.875254900E0
7.093366000E0,1.209784241E0,1.308279419E-1,9.697583771E0,9.773629052E0
7.103397000E0,1.193617859E0,1.320254517E-1,9.720635834E0,9.794534972E0
7.113429000E0,1.235231323E0,1.013392639E-1,9.899813232E0,9.977092167E0
7.123460000E0,1.302740936E0,1.170565796E-1,9.888137512E0,9.974271886E0
7.133492000E0,1.332079926E0,1.097218323E-1,9.870623932E0,9.960707435E0
7.143523000E0,1.307231598E0,9.415420532E-2,9.755812683E0,9.843454707E0
7.153555000E0,1.254241791E0,2.918930054E-2,9.743538208E0,9.823976349E0
7.163586000E0,1.242566071E0,-6.855743408E-2,9.812095642E0,9.890697218E0
7.173618000E0,1.307530975E0,-1.249900818E-1,9.915380859E0,1.000200167E1
7.183649000E0,1.349593506E0,-1.266366577E-1,9.941426697E0,1.003341439E1
7.193681000E0,1.338067474E0,-7.559280396E-2,9.861193542E0,9.951847915E0
7.203712000E0,1.278790741E0,-2.125579834E-2,9.745184784E0,9.828752924E0
7.213744000E0,1.259480896E0,2.709365845E-2,9.693691864E0,9.775207831E0
7.223775000E0,1.272803192E0,7.185058594E-2,9.713151398E0,9.796453468E0
7.233807000E0,1.290167084E0,9.370513916E-2,9.758956146E0,9.844314949E0
7.243838000E0,1.301543427E0,9.280700684E-2,9.784852295E0,9.871472173E0
7.253870000E0,1.312620392E0,7.664062500E-2,9.834548950E0,9.922056195E0
7.263901000E0,1.325643311E0,6.286926270E-2,9.864486694E0,9.953360260E0
7.273933000E0,1.309626617E0,3.876937866E-2,9.857151947E0,9.943845808E0
7.283964000E0,1.290167084E0,3.248245239E-2,9.823771362E0,9.908181972E0
7.293996000E0,1.265019379E0,4.221221924E-2,9.784852295E0,9.866376758E0
7.304027000E0,1.255439301E0,3.517684937E-2,9.758058014E0,9.838549764E0
7.314059000E0,1.255588989E0,3.562591553E-2,9.762249298E0,9.842727481E0
7.324090000E0,1.246008911E0,1.960922241E-2,9.776769104E0,9.855868142E0
7.334122000E0,1.249601440E0,1.901046753E-2,9.790241089E0,9.869685189E0
7.344153000E0,1.273851013E0,-4.490661621E-3,9.805509338E0,9.887908270E0
7.354185000E0,1.296603699E0,-1.811233521E-2,9.832303619E0,9.917444412E0
7.364216000E0,1.321002960E0,-1.362167358E-2,9.860445099E0,9.948548232E0
7.374248000E0,1.354982300E0,-2.514770508E-2,9.841734009E0,9.934603049E0
7.384279000E0,1.357976074E0,-2.080673218E-2,9.838141479E0,9.931442982E0
7.394311000E0,1.359023895E0,-1.676513672E-2,9.824220428E0,9.917788768E0
7.404342000E0,1.330133972E0,5.987548828E-4,9.756112061E0,9.846368837E0
7.414374000E0,1.282832336E0,8.981323242E-3,9.756261749E0,9.840243025E0
7.424405000E0,1.258433075E0,5.388793945E-3,9.759554901E0,9.840355416E0
7.434437000E0,1.258133698E0,2.005828857E-2,9.736951904E0,9.817919083E0
7.444468000E0,1.277144165E0,-2.395019531E-2,9.787995758E0,9.870994468E0
7.454500000E0,1.336570587E0,-6.900650024E-2,9.852212219E0,9.942699253E0
7.464531000E0,1.357676697E0,-6.107299805E-2,9.836644592E0,9.930085234E0
7.474563000E0,1.295705566E0,-5.763015747E-2,9.798324280E0,9.883791420E0
7.484594000E0,1.297801208E0,-2.110610962E-2,9.778116302E0,9.863888273E0
7.494626000E0,1.307530975E0,1.152603149E-2,9.720186768E0,9.807741886E0
7.504657000E0,1.302291870E0,4.161346436E-2,9.686656494E0,9.773894302E0
7.514689000E0,1.295406189E0,4.550537109E-2,9.708511047E0,9.794658477E0
7.524720000E0,1.293460236E0,2.933898926E-2,9.765841827E0,9.851170832E0
7.534752000E0,1.309776306E0,-1.796264648E-3,9.857900391E0,9.944532031E0
7.544783000E0,1.329834595E0,-1.002914429E-2,9.893825684E0,9.982802577E0
7.554815000E0,1.332079926E0,-1.451980591E-2,9.854756927E0,9.944389466E0
7.564846000E0,1.304986267E0,-2.888992310E-2,9.838740234E0,9.924950034E0
7.574878000E0,1.270258484E0,-4.251159668E-2,9.819580078E0,9.901490633E0
7.584909000E0,1.274898834E0,-4.011657715E-2,9.808952179E0,9.891537758E0
7.594941000E0,1.277144165E0,-3.742218018E-2,9.775721283E0,9.858865261E0
7.604972000E0,1.260229340E0,-2.829116821E-2,9.736353149E0,9.817614325E0
7.615004000E0,1.270557861E0,-5.508544922E-2,9.740993500E0,9.823660522E0
7.625035000E0,1.266665955E0,-5.508544922E-2,9.758058014E0,9.840079941E0
7.635067000E0,1.275048523E0,-5.328918457E-2,9.781858521E0,9.864752637E0
7.645099000E0,1.279838562E0,-5.733078003E-2,9.773026886E0,9.856638782E0
7.655130000E0,1.290316772E0,-6.227050781E-2,9.777218170E0,9.862189926E0
7.665162000E0,1.306333466E0,-6.750961304E-2,9.774673462E0,9.861810481E0
7.675193000E0,1.280287628E0,-5.313949585E-2,9.779164124E0,9.862758801E0
7.685225000E0,1.288370819E0,-3.727249146E-2,9.762099609E0,9.846820674E0
7.695256000E0,1.301244049E0,-2.424957275E-2,9.771829376E0,9.858117136E0
7.705288000E0,1.290915527E0,-1.646575928E-2,9.777816925E0,9.862679040E0
7.715319000E0,1.292113037E0,-1.451980591E-2,9.784103851E0,9.869065564E0
7.725351000E0,1.284478912E0,-8.083190918E-3,9.809401245E0,9.893144303E0
7.735382000E0,1.295406189E0,-2.095642090E-2,9.828262024E0,9.913286578E0
7.745414000E0,1.311422882E0,-1.167572021E-2,9.807006226E0,9.894308334E0
7.755445000E0,1.316512299E0,8.981323242E-4,9.788744202E0,9.876877973E0
7.765477000E0,1.302142181E0,-1.347198486E-3,9.757908325E0,9.844407090E0
7.775508000E0,1.290915527E0,-2.125579834E-2,9.776170349E0,9.861055796E0
7.785540000E0,1.311722260E0,-1.856140137E-2,9.815089417E0,9.902370427E0
7.795571000E0,1.338516541E0,-2.649490356E-2,9.817634125E0,9.908494755E0
7.805603000E0,1.333277435E0,-3.338058472E-2,9.796528015E0,9.886895576E0
7.815634000E0,1.337468719E0,-3.547622681E-2,9.789792023E0,9.880794957E0
7.825666000E0,1.314566345E0,-4.236190796E-2,9.761800232E0,9.850006242E0
7.835697000E0,1.272952881E0,-5.867797852E-2,9.766141205E0,9.848927159E0
7.845729000E0,1.262324982E0,-7.454498291E-2,9.782756653E0,9.864144618E0
7.855760000E0,1.266965332E0,-6.406677246E-2,9.765692139E0,9.847743328E0
7.865792000E0,1.252894592E0,-5.059478760E-2,9.694889374E0,9.775642417E0
7.875823000E0,1.238374786E0,-5.044509888E-2,9.676178284E0,9.755231571E0
7.885855000E0,1.262624359E0,-1.050814819E-1,9.804910583E0,9.886431810E0
7.895886000E0,1.328188019E0,-1.472937012E-1,9.872719574E0,9.962749150E0
7.905918000E0,1.369053040E0,-1.305285645E-1,9.835896149E0,9.931575755E0
7.915949000E0,1.353784790E0,-1.459465027E-1,9.811646576E0,9.905677270E0
7.925981000E0,1.314566345E0,-1.145118713E-1,9.761051788E0,9.849839068E0
7.936011875E0,1.287622375E0,-8.053253174E-2,9.726922760E0,9.812109011E0
7.946043875E0,1.267264709E0,-6.137237549E-2,9.752519531E0,9.834702010E0
7.956074875E0,1.271905060E0,3.742218018E-3,9.773326263E0,9.855742627E0
7.966106875E0,1.290466461E0,5.448669434E-2,9.767338715E0,9.852369159E0
7.976137875E0,1.299148407E0,8.442443848E-2,9.759105835E0,9.845560460E0
7.986169875E0,1.315763855E0,8.831634521E-2,9.761800232E0,9.850470957E0
7.996200875E0,1.333726501E0,7.214996338E-2,9.807455292E0,9.897990266E0
8.006232875E0,1.330433350E0,1.960922241E-2,9.859546967E0,9.948924756E0
8.016263875E0,1.302890625E0,-8.681945801E-3,9.879904633E0,9.965446046E0
8.026295875E0,1.278790741E0,-5.104385376E-2,9.845176849E0,9.928011806E0
8.036326875E0,1.278341675E0,-8.681945801E-2,9.823471985E0,9.906679408E0
8.046358875E0,1.272354126E0,-1.002914429E-1,9.800120544E0,9.882879443E0
8.056389875E0,1.285975800E0,-1.222956848E-1,9.744885406E0,9.830131310E0
8.066421875E0,1.289568329E0,-1.130149841E-1,9.697883148E0,9.783899857E0
8.076452875E0,1.278940430E0,-1.115180969E-1,9.692943420E0,9.777590555E0
8.086484875E0,1.282682648E0,-1.158590698E-1,9.711055756E0,9.796086055E0
8.096515875E0,1.281784515E0,-1.218466187E-1,9.725725250E0,9.810583560E0
8.106547875E0,1.286125488E0,-1.215472412E-1,9.750573578E0,9.835780477E0
8.116578875E0,1.288370819E0,-1.109193420E-1,9.770482178E0,9.855684880E0
8.126610875E0,1.294508057E0,-1.077758789E-1,9.769733734E0,9.855712252E0
8.136641875E0,1.288969574E0,-8.951385498E-2,9.795779572E0,9.880625117E0
8.146673875E0,1.280886383E0,-7.738906860E-2,9.814191284E0,9.897727495E0
8.156704875E0,1.274898834E0,-3.158432007E-2,9.739496613E0,9.822635027E0
8.166736875E0,1.259031830E0,-1.496887207E-4,9.784702606E0,9.865372079E0
8.176767875E0,1.259480896E0,7.634124756E-3,9.854607239E0,9.934768957E0
8.186799875E0,1.265767822E0,4.370910645E-2,9.797575836E0,9.879097678E0
8.196830875E0,1.277593231E0,1.466949463E-2,9.779463501E0,9.862574006E0
8.206862875E0,1.276994476E0,2.020797729E-2,9.762997742E0,9.846179369E0
8.216893875E0,1.273551636E0,8.831634521E-3,9.748927002E0,9.831764310E0
8.226925875E0,1.272354126E0,-1.691482544E-2,9.793683929E0,9.876002027E0
8.236956875E0,1.310674438E0,-7.424560547E-2,9.867480469E0,9.954423675E0
8.246988875E0,1.357826385E0,-6.945556641E-2,9.879156189E0,9.972273741E0
8.257019875E0,1.383273468E0,-7.559280396E-2,9.813293152E0,9.910594445E0
8.267051875E0,1.365310822E0,-5.867797852E-2,9.775571594E0,9.870628994E0
8.277082875E0,1.338965607E0,-3.323089600E-2,9.748777313E0,9.840355293E0
8.287114875E0,1.295106812E0,-4.490661621E-3,9.707463226E0,9.793475589E0
8.297145875E0,1.243613892E0,3.592529297E-3,9.737850037E0,9.816940040E0
8.307177875E0,1.274300079E0,-1.167572021E-2,9.782756653E0,9.865409507E0
8.317208875E0,1.296603699E0,-5.388793945E-3,9.772278442E0,9.857922507E0
8.327240875E0,1.293609924E0,-3.293151855E-3,9.731712799E0,9.817314882E0
8.337271875E0,1.266067200E0,-4.385879517E-2,9.762398987E0,9.844251303E0
8.347303875E0,1.256936188E0,-4.251159668E-2,9.806856537E0,9.887170017E0
8.357334875E0,1.259331207E0,-4.565505981E-2,9.807604980E0,9.888231132E0
8.367366875E0,1.252744904E0,-4.864883423E-2,9.783505096E0,9.863503864E0
8.377397875E0,1.225202179E0,-3.188369751E-2,9.751022644E0,9.827745395E0
8.387429875E0,1.243913269E0,-3.712280273E-2,9.776320038E0,9.855208359E0
8.397460875E0,1.256337433E0,-1.811233521E-2,9.799521790E0,9.879743879E0
8.407492875E0,1.301842804E0,-1.556762695E-2,9.793534241E0,9.879693819E0
8.417523875E0,1.295705566E0,-1.047821045E-3,9.808802490E0,9.894011335E0
8.427555875E0,1.298250275E0,1.137634277E-2,9.812395020E0,9.897912872E0
8.437586875E0,1.312171326E0,1.092727661E-2,9.797875214E0,9.885356427E0
8.447618875E0,1.304686890E0,1.437011719E-2,9.793534241E0,9.880067171E0
8.457649875E0,1.285975800E0,2.305206299E-2,9.799372101E0,9.883418372E0
8.467681875E0,1.270108795E0,3.577560425E-2,9.799521790E0,9.881552689E0
8.477712875E0,1.278042297E0,4.086502075E-2,9.796528015E0,9.879626674E0
8.487744875E0,1.267414398E0,3.682342529E-2,9.783654785E0,9.865474959E0
8.497775875E0,1.266965332E0,2.694396973E-2,9.791737976E0,9.873401629E0
8.507807875E0,1.274898834E0,2.679428101E-2,9.801617432E0,9.884219203E0
8.517838875E0,1.281335449E0,1.257385254E-2,9.776320038E0,9.859939762E0
8.527870875E0,1.275198212E0,2.948867798E-2,9.735305328E0,9.818511593E0
8.537901875E0,1.275497589E0,2.305206299E-2,9.733059998E0,9.816306964E0
8.547933875E0,1.285676422E0,3.592529297E-3,9.763446808E0,9.847734274E0
8.557964875E0,1.325044556E0,-2.544708252E-3,9.815089417E0,9.904126908E0
8.567996875E0,1.347048798E0,9.430389404E-3,9.809550934E0,9.901611935E0
8.578027875E0,1.335073700E0,2.799179077E-2,9.768087158E0,9.858941731E0
8.588059875E0,1.304237823E0,2.439926147E-2,9.748477936E0,9.835367491E0
8.598090875E0,1.281036072E0,2.769241333E-2,9.779613190E0,9.863196968E0
8.608122875E0,1.304088135E0,2.080673218E-2,9.787247314E0,9.873767709E0
8.618154875E0,1.280287628E0,4.460723877E-2,9.702224121E0,9.786433421E0
8.628185875E0,1.255738678E0,4.655319214E-2,9.675130463E0,9.756392586E0
8.638216875E0,1.298998718E0,9.879455566E-3,9.833800507E0,9.919230196E0
8.648248875E0,1.382824402E0,-2.993774414E-3,9.902657318E0,9.998741633E0
8.658280875E0,1.417402496E0,9.729766846E-3,9.889335022E0,9.990398975E0
8.668311875E0,1.355581055E0,1.137634277E-2,9.774074707E0,9.867637296E0
8.678343875E0,1.258433075E0,2.454895020E-2,9.695787506E0,9.777144359E0
8.688374875E0,1.218316498E0,-2.963836670E-2,9.738149414E0,9.814108596E0
8.698406875E0,1.256038055E0,-5.194198608E-2,9.807455292E0,9.887694821E0
8.708437875E0,1.314566345E0,-5.298980713E-2,9.844727783E0,9.932248372E0
8.718469875E0,1.326541443E0,-1.107696533E-2,9.815837860E0,9.905074851E0
8.728500875E0,1.292113037E0,3.951782227E-2,9.763446808E0,9.848655306E0
8.738532875E0,1.260828094E0,8.277786255E-2,9.735604706E0,9.817257185E0
8.748563875E0,1.250499573E0,9.939331055E-2,9.750124512E0,9.830491148E0
8.758595875E0,1.275497589E0,1.273851013E-1,9.789342957E0,9.872910239E0
8.768626875E0,1.312919769E0,1.312770081E-1,9.814939728E0,9.903233504E0
8.778658875E0,1.304686890E0,1.481918335E-1,9.815688171E0,9.903125919E0
8.788689875E0,1.287472687E0,1.312770081E-1,9.829010468E0,9.913842158E0
8.798721875E0,1.286275177E0,1.091230774E-1,9.826615448E0,9.911043479E0
8.808752875E0,1.260977783E0,9.145980835E-2,9.804162140E0,9.885343956E0
8.818784875E0,1.256187744E0,7.304809570E-2,9.782457275E0,9.863052977E0
8.828815875E0,1.288819885E0,4.236190796E-2,9.762398987E0,9.847196820E0
8.838847875E0,1.281634827E0,3.442840576E-2,9.745633850E0,9.829605907E0
8.848878875E0,1.290017395E0,2.230361938E-2,9.757608948E0,9.842539038E0
8.858910875E0,1.298100586E0,1.197509766E-3,9.786947937E0,9.872660051E0
8.868941875E0,1.315015411E0,8.083190918E-3,9.798174591E0,9.886028332E0
8.878973875E0,1.306333466E0,1.736389160E-2,9.798923035E0,9.885631051E0
8.889004875E0,1.292262726E0,1.182540894E-2,9.804012451E0,9.888819087E0
8.899036875E0,1.290167084E0,3.128494263E-2,9.791588287E0,9.876270098E0
8.909067875E0,1.284179535E0,4.490661621E-2,9.793234863E0,9.877174837E0
8.919099875E0,1.292711792E0,5.568420410E-2,9.795330505E0,9.880420245E0
8.929131250E0,1.278790741E0,7.843688965E-2,9.802365875E0,9.885738964E0
8.939163250E0,1.272653503E0,1.041833496E-1,9.736652527E0,9.820025638E0
8.949194250E0,1.229243774E0,1.110690308E-1,9.782906342E0,9.860458056E0
8.959226250E0,1.218765564E0,1.365161133E-1,9.747280426E0,9.824128554E0
8.969257250E0,1.240919495E0,1.333726501E-1,9.761949921E0,9.841409234E0
8.979289250E0,1.295855255E0,1.029858398E-1,9.817484436E0,9.903173611E0
8.989320250E0,1.334325256E0,8.562194824E-2,9.834249573E0,9.924727687E0
8.999352250E0,1.310824127E0,7.634124756E-2,9.802814941E0,9.890362413E0
9.009383250E0,1.268462219E0,6.481521606E-2,9.802665253E0,9.884606389E0
9.019415250E0,1.261127472E0,8.846603394E-2,9.794731750E0,9.875982928E0
9.029446250E0,1.286125488E0,1.025367737E-1,9.812844086E0,9.897299713E0
9.039478250E0,1.316362610E0,1.306782532E-1,9.779164124E0,9.868228731E0
9.049509250E0,1.306034088E0,1.586700439E-1,9.757608948E0,9.845904407E0
9.059541250E0,1.283730469E0,1.486408997E-1,9.762099609E0,9.847265956E0
9.069572250E0,1.266366577E0,1.489402771E-1,9.785451050E0,9.868177125E0
9.079604250E0,1.276994476E0,1.175056458E-1,9.816137238E0,9.899549118E0
9.089635250E0,1.296304321E0,6.885681152E-2,9.851763153E0,9.936920216E0
9.099667250E0,1.316512299E0,2.260299683E-2,9.859546967E0,9.947079064E0
9.109698250E0,1.322350159E0,-1.197509766E-3,9.863289185E0,9.951536812E0
9.119730250E0,1.321751404E0,-3.412902832E-2,9.838141479E0,9.926591527E0
9.129761250E0,1.282532959E0,-4.745132446E-2,9.828711090E0,9.912149318E0
9.139793250E0,1.251547394E0,-5.957611084E-2,9.763147430E0,9.843219389E0
9.149824250E0,1.238374786E0,-5.508544922E-2,9.743089142E0,9.821628813E0
9.159856250E0,1.241967316E0,-7.289840698E-2,9.770482178E0,9.849371502E0
9.169887250E0,1.262175293E0,-6.646179199E-2,9.800569611E0,9.881734075E0
9.179919250E0,1.279090118E0,-4.864883423E-2,9.796378326E0,9.879649111E0
9.189950250E0,1.288819885E0,-4.370910645E-2,9.795480194E0,9.879999970E0
9.199982250E0,1.291214905E0,-2.320175171E-2,9.784852295E0,9.869706616E0
9.210013250E0,1.280137939E0,-1.197509766E-3,9.785750427E0,9.869126912E0
9.220045250E0,1.281485138E0,6.436614990E-3,9.797725525E0,9.881177615E0
9.230076250E0,1.275347900E0,3.143463135E-2,9.786947937E0,9.869744187E0
9.240108250E0,1.267863464E0,4.999603271E-2,9.791588287E0,9.873458288E0
9.250139250E0,1.261277161E0,6.227050781E-2,9.790839844E0,9.871942187E0
9.260171250E0,1.261726227E0,6.691085815E-2,9.811347198E0,9.892368977E0
9.270202250E0,1.267564087E0,4.595443726E-2,9.833650818E0,9.915115679E0
9.280234250E0,1.287023621E0,3.996688843E-2,9.843230896E0,9.927095327E0
9.290265250E0,1.304986267E0,1.751358032E-2,9.848020935E0,9.934123626E0
9.300297250E0,1.316961365E0,-1.646575928E-3,9.846524048E0,9.934204838E0
9.310328250E0,1.326691132E0,-1.571731567E-2,9.833052063E0,9.922160514E0
9.320360250E0,1.324296112E0,-3.592529297E-2,9.806557159E0,9.895636116E0
9.330391250E0,1.302142181E0,-5.254074097E-2,9.786798248E0,9.873183617E0
9.340423250E0,1.307231598E0,-6.167175293E-2,9.758956146E0,9.846313164E0
9.350454250E0,1.322649536E0,-5.643264771E-2,9.782157898E0,9.871332209E0
9.360486250E0,1.330433350E0,-7.783813477E-2,9.765991516E0,9.856505566E0
9.370517250E0,1.331032104E0,-7.140151978E-2,9.778565369E0,9.868996165E0
9.380549250E0,1.325643311E0,-7.155120850E-2,9.765093384E0,9.854922555E0
9.390580250E0,1.335822144E0,-8.217910767E-2,9.767638092E0,9.858900958E0
9.400612250E0,1.319356384E0,-7.843688965E-2,9.781858521E0,9.870745146E0
9.410643250E0,1.313967590E0,-4.475692749E-2,9.737101593E0,9.825459859E0
9.420675250E0,1.280736694E0,-2.918930054E-2,9.738299103E0,9.822199749E0
9.430706250E0,1.279539185E0,-3.682342529E-2,9.754914551E0,9.838543306E0
9.440738250E0,1.292113037E0,-2.649490356E-2,9.804611206E0,9.889421570E0
9.450769250E0,1.299597473E0,-7.185058594E-3,9.817933502E0,9.903576297E0
9.460801250E0,1.285975800E0,1.077758789E-2,9.816137238E0,9.900020211E0
9.470832250E0,1.278790741E0,2.380050659E-2,9.784702606E0,9.867941899E0
9.480864250E0,1.248403931E0,2.514770508E-2,9.774224396E0,9.853659590E0
9.490895250E0,1.228195953E0,-1.032852173E-2,9.808952179E0,9.885550811E0
9.500927250E0,1.239572296E0,-2.529739380E-2,9.832902374E0,9.910759231E0
9.510958250E0,1.236728210E0,-1.437011719E-2,9.803264008E0,9.880976084E0
9.520990250E0,1.230740662E0,-1.451980591E-2,9.710307312E0,9.788002937E0
9.531021250E0,1.228645020E0,-1.137634277E-2,9.751920776E0,9.829021153E0
9.541053250E0,1.290167084E0,-9.610015869E-2,9.862690430E0,9.947181956E0
9.551084250E0,1.381626892E0,-1.125659180E-1,9.876162415E0,9.972970871E0
9.561116250E0,1.408570862E0,-1.383123779E-1,9.816436615E0,9.917944848E0
9.571147250E0,1.358574829E0,-1.434017944E-1,9.776769104E0,9.871752821E0
9.581179250E0,1.301244049E0,-1.194515991E-1,9.740544434E0,9.827802940E0
9.591210250E0,1.305135956E0,-1.092727661E-1,9.752669220E0,9.840217341E0
9.601242250E0,1.296903076E0,-5.852828979E-2,9.790839844E0,9.876534210E0
9.611273250E0,1.286125488E0,1.002914429E-2,9.733658752E0,9.818265227E0
9.621305250E0,1.287622375E0,6.122268677E-2,9.690847778E0,9.776208379E0
9.631336250E0,1.287023621E0,7.125183105E-2,9.707463226E0,9.792668120E0
9.641368250E0,1.309925995E0,3.517684937E-2,9.750573578E0,9.838233003E0
9.651399250E0,1.337169342E0,1.871109009E-2,9.828561401E0,9.919122500E0
9.661431250E0,1.338666229E0,-3.143463135E-3,9.889634399E0,9.979824934E0
9.671462250E0,1.342707825E0,-3.023712158E-2,9.892777863E0,9.983528055E0
9.681494250E0,1.322499847E0,-6.107299805E-2,9.858499146E0,9.946996590E0
9.691525250E0,1.309476929E0,-7.918533325E-2,9.851014709E0,9.937982237E0
9.701557250E0,1.320703583E0,-8.502319336E-2,9.794881439E0,9.883885334E0
9.711588250E0,1.318458252E0,-7.185058594E-2,9.740394745E0,9.829485462E0
9.721620250E0,1.311572571E0,-6.885681152E-2,9.719288635E0,9.807626392E0
9.731651250E0,1.288819885E0,-7.140151978E-2,9.732610931E0,9.817834304E0
9.741683250E0,1.274449768E0,-7.484436035E-2,9.766889648E0,9.849972451E0
9.751714250E0,1.285377045E0,-9.041198730E-2,9.796827393E0,9.881204149E0
9.761746250E0,1.318158875E0,-9.999206543E-2,9.819879456E0,9.908459706E0
9.771777250E0,1.328337708E0,-1.215472412E-1,9.803862762E0,9.894189197E0
9.781809250E0,1.309626617E0,-9.804611206E-2,9.806706848E0,9.894252580E0
9.791840250E0,1.313368835E0,-9.520202637E-2,9.804910583E0,9.892940547E0
9.801872250E0,1.297950897E0,-7.574249268E-2,9.807155914E0,9.892963185E0
9.811903250E0,1.275198212E0,-3.068618774E-2,9.720037079E0,9.803376609E0
9.821935250E0,1.260079651E0,-2.050735474E-2,9.798024902E0,9.878740470E0
9.831966250E0,1.272503815E0,3.143463135E-3,9.831106110E0,9.913118741E0
9.841998250E0,1.298250275E0,3.218307495E-2,9.760602722E0,9.846616425E0
9.852029250E0,1.301244049E0,-6.586303711E-3,9.743538208E0,9.830046605E0
9.862061250E0,1.290017395E0,-1.407073975E-2,9.746232605E0,9.831245743E0
9.872092250E0,1.276545410E0,-2.918930054E-2,9.754914551E0,9.838128790E0
9.882124250E0,1.284927979E0,-7.738906860E-2,9.803862762E0,9.888010621E0
9.892155250E0,1.330283661E0,-1.115180969E-1,9.875563660E0,9.965382506E0
9.902187250E0,1.381776581E0,-9.520202637E-2,9.850715332E0,9.947610894E0
9.912218250E0,1.386416931E0,-8.173004150E-2,9.804910583E0,9.902782602E0
9.922250250E0,1.357826385E0,-6.795867920E-2,9.754465485E0,9.848751584E0
9.932280625E0,1.318757629E0,-6.256988525E-2,9.723479919E0,9.812700873E0
9.942312625E0,1.293909302E0,-6.212081909E-2,9.721983032E0,9.807905707E0
9.952343625E0,1.288370819E0,-4.805007935E-2,9.734257507E0,9.819265624E0
9.962375625E0,1.303639069E0,-6.466552734E-2,9.775870972E0,9.862621847E0
9.972406625E0,1.316811676E0,-8.622070312E-2,9.758207703E0,9.847032272E0
9.982438625E0,1.309476929E0,-1.184037781E-1,9.755962372E0,9.844163300E0
9.992469625E0,1.301393738E0,-1.207987976E-1,9.764045563E0,9.851132106E0
1.000250162E1,1.274898834E0,-1.294807434E-1,9.782906342E0,9.866478034E0
1.001253262E1,1.266516266E0,-1.330732727E-1,9.775870972E0,9.858469719E0
1.002256463E1,1.259331207E0,-1.341210938E-1,9.760752411E0,9.842570355E0
1.003259562E1,1.243913269E0,-1.097218323E-1,9.746981049E0,9.826647377E0
1.004262762E1,1.234931946E0,-1.148112488E-1,9.747130737E0,9.825721151E0
1.005265963E1,1.257085876E0,-9.220825195E-2,9.750573578E0,9.831706483E0
1.006269063E1,1.258283386E0,-7.903564453E-2,9.745783539E0,9.826994479E0
1.007272262E1,1.269659729E0,-8.307723999E-2,9.756261749E0,9.838881084E0
1.008275362E1,1.276994476E0,-8.023315430E-2,9.778864746E0,9.862218208E0
1.009278463E1,1.272503815E0,-7.604187012E-2,9.792636108E0,9.875260517E0
1.010281662E1,1.264121246E0,-5.822891235E-2,9.789941711E0,9.871390573E0
1.011284762E1,1.280886383E0,-4.131408691E-2,9.798024902E0,9.881481102E0
1.012287963E1,1.283281403E0,-3.397933960E-2,9.799372101E0,9.883099682E0
1.013291162E1,1.287622375E0,-1.856140137E-2,9.785151672E0,9.869524262E0
1.014294262E1,1.288969574E0,-2.409988403E-2,9.783056030E0,9.867634400E0
1.015297362E1,1.290167084E0,-3.038681030E-2,9.782906342E0,9.867659852E0
1.016300563E1,1.290466461E0,-5.104385376E-2,9.792935486E0,9.877727198E0
1.017303762E1,1.304537201E0,-6.062393188E-2,9.803264008E0,9.889867429E0
1.018306862E1,1.321452026E0,-8.337661743E-2,9.773326263E0,9.862610880E0
1.019310063E1,1.324745178E0,-8.128097534E-2,9.761800232E0,9.851614089E0
1.020313163E1,1.307530975E0,-1.164578247E-1,9.756710815E0,9.844623183E0
1.021316362E1,1.328936462E0,-1.297801208E-1,9.789043579E0,9.879690744E0
1.022319462E1,1.343156891E0,-1.468446350E-1,9.823172607E0,9.915662048E0
1.023322663E1,1.338516541E0,-1.212478638E-1,9.804910583E0,9.896595330E0
1.024325762E1,1.329235840E0,-1.010398865E-1,9.774972839E0,9.865453410E0
1.025328962E1,1.291364594E0,-8.322692871E-2,9.745334473E0,9.830874489E0
1.026332063E1,1.264270935E0,-7.828720093E-2,9.754166107E0,9.836069659E0
1.027335263E1,1.255439301E0,-9.355545044E-2,9.781708832E0,9.862388561E0
1.028338362E1,1.265468445E0,-6.975494385E-2,9.745933228E0,9.827995249E0
1.029341562E1,1.247805176E0,-5.194198608E-2,9.661059723E0,9.741447053E0
1.030344663E1,1.248553619E0,-5.254074097E-2,9.777068481E0,9.856607670E0
1.031347862E1,1.330882416E0,-7.259902954E-2,9.909093933E0,9.998332921E0
1.032350962E1,1.392105103E0,-7.738906860E-2,9.915231171E0,1.001277958E1
1.033354163E1,1.372795258E0,-5.463638306E-2,9.812245331E0,9.907961969E0
1.034357263E1,1.274000702E0,-8.202941895E-2,9.757010193E0,9.840175533E0
1.035360462E1,1.229543152E0,-1.215472412E-1,9.753567352E0,9.831511897E0
1.036363562E1,1.248553619E0,-1.330732727E-1,9.786648560E0,9.866868027E0
1.037366763E1,1.324296112E0,-1.175056458E-1,9.834399261E0,9.923858957E0
1.038369863E1,1.368154907E0,-6.676116943E-2,9.840536499E0,9.935414611E0
1.039373062E1,1.359323273E0,-2.499801636E-2,9.805509338E0,9.899313009E0
1.040376162E1,1.328936462E0,1.242416382E-2,9.769434357E0,9.859415507E0
1.041379363E1,1.339564362E0,4.715194702E-2,9.753118286E0,9.844794172E0
1.042382462E1,1.330133972E0,4.715194702E-2,9.776469727E0,9.866652928E0
1.043385662E1,1.349892883E0,3.338058472E-2,9.807006226E0,9.899530098E0
1.044388763E1,1.335822144E0,6.586303711E-3,9.821975098E0,9.912399255E0
1.045391963E1,1.323847046E0,-0.000000000E0,9.823921051E0,9.912718891E0
1.046395062E1,1.310824127E0,-2.350112915E-2,9.798024902E0,9.885347955E0
1.047398263E1,1.279988251E0,-4.400848389E-2,9.786199493E0,9.869650814E0
1.048401363E1,1.288819885E0,-7.200027466E-2,9.759854279E0,9.844846178E0
1.049404562E1,1.302441559E0,-7.559280396E-2,9.756261749E0,9.843104775E0
1.050407662E1,1.306932220E0,-8.472381592E-2,9.744735718E0,9.832350897E0
1.051410863E1,1.318458252E0,-8.158035278E-2,9.754315796E0,9.843356346E0
1.052413963E1,1.308728485E0,-7.918533325E-2,9.774823151E0,9.862363215E0
1.053417162E1,1.306483154E0,-9.565109253E-2,9.784253540E0,9.871558372E0
1.054420262E1,1.312770081E0,-8.622070312E-2,9.794582062E0,9.882542034E0
1.055423463E1,1.302441559E0,-6.735992432E-2,9.788295135E0,9.874796860E0
1.056426562E1,1.313219147E0,-5.059478760E-2,9.773775330E0,9.861733547E0
1.057429762E1,1.300495605E0,-3.577560425E-2,9.797276459E0,9.883278541E0
1.058432863E1,1.314865723E0,-1.496887207E-2,9.801168365E0,9.888983632E0
1.059436063E1,1.310375061E0,1.646575928E-3,9.785600739E0,9.872946233E0
1.060439162E1,1.306782532E0,3.532653809E-2,9.748627625E0,9.835886798E0
1.061442362E1,1.293609924E0,2.769241333E-2,9.839638367E0,9.924347671E0
1.062445463E1,1.270408173E0,3.936813354E-2,9.807006226E0,9.889027145E0
1.063448662E1,1.272204437E0,5.478607178E-2,9.724976807E0,9.807990596E0
1.064451762E1,1.264570312E0,2.844085693E-2,9.734556885E0,9.816391633E0
1.065454963E1,1.292562103E0,-2.574645996E-2,9.809251556E0,9.894078824E0
1.066458063E1,1.307231598E0,-4.715194702E-2,9.844877472E0,9.931399206E0
1.067461262E1,1.301693115E0,-6.661148071E-2,9.838889923E0,9.924847453E0
1.068464362E1,1.293460236E0,-7.798782349E-2,9.818382568E0,9.903522492E0
1.069467563E1,1.314416656E0,-6.691085815E-2,9.797276459E0,9.885281696E0
1.070470663E1,1.337917786E0,-4.131408691E-2,9.792785797E0,9.883844623E0
1.071473862E1,1.335223389E0,-1.496887207E-2,9.777966614E0,9.868722139E0
1.072476962E1,1.320104828E0,7.933502197E-3,9.740993500E0,9.830040390E0
1.073480163E1,1.299148407E0,8.681945801E-3,9.748178558E0,9.834370705E0
1.074483262E1,1.299298096E0,1.481918335E-2,9.782457275E0,9.868377045E0
1.075486462E1,1.322799225E0,1.257385254E-2,9.804012451E0,9.892856819E0
1.076489563E1,1.332978058E0,-6.137237549E-3,9.799372101E0,9.889618887E0
1.077492763E1,1.345851288E0,-2.903961182E-2,9.802665253E0,9.894665484E0
1.078495862E1,1.330583038E0,-2.095642090E-2,9.814340973E0,9.904149591E0
1.079499062E1,1.298699341E0,-3.817062378E-2,9.791139221E0,9.876967360E0
1.080502163E1,1.272354126E0,-2.769241333E-2,9.745933228E0,9.828675718E0
1.081505362E1,1.252445526E0,-1.841171265E-2,9.738149414E0,9.818376281E0
1.082508462E1,1.260229340E0,-4.056564331E-2,9.761500854E0,9.842597345E0
1.083511663E1,1.277443542E0,-4.206253052E-2,9.790390778E0,9.873468633E0
1.084514763E1,1.295555878E0,-1.930984497E-2,9.794282684E0,9.879615944E0
1.085517962E1,1.298250275E0,-1.437011719E-2,9.789043579E0,9.874767565E0
1.086521062E1,1.293011169E0,7.484436035E-4,9.781409454E0,9.866501374E0
1.087524263E1,1.271156616E0,5.688171387E-3,9.774224396E0,9.856537629E0
1.088527362E1,1.273401947E0,1.317260742E-2,9.778265991E0,9.860842349E0
1.089530562E1,1.273701324E0,1.332229614E-2,9.780810699E0,9.863404609E0
1.090533663E1,1.257684631E0,3.143463135E-2,9.778265991E0,9.858866292E0
1.091536863E1,1.251996460E0,5.733078003E-2,9.780361633E0,9.860337501E0
1.092539962E1,1.259630585E0,6.496490479E-2,9.800569611E0,9.881399412E0
1.093543187E1,1.268462219E0,6.391708374E-2,9.826914825E0,9.908649594E0
1.094546288E1,1.272054749E0,6.975494385E-2,9.836644592E0,9.918798610E0
1.095549487E1,1.288670197E0,8.607101440E-2,9.813891907E0,9.898512689E0
1.096552587E1,1.272503815E0,7.978408813E-2,9.794282684E0,9.876922839E0
1.097555788E1,1.288819885E0,5.777984619E-2,9.785900116E0,9.870574263E0
1.098558888E1,1.303788757E0,1.646575928E-2,9.825417938E0,9.911557592E0
1.099562087E1,1.349294128E0,-2.080673218E-2,9.846524048E0,9.938564453E0
1.100565187E1,1.366957397E0,-4.670288086E-2,9.862241364E0,9.956633889E0
1.101568388E1,1.380878448E0,-8.247848511E-2,9.843530273E0,9.940257353E0
1.102571488E1,1.371597748E0,-1.167572021E-1,9.841135254E0,9.936943983E0
1.103574687E1,1.363065491E0,-1.279838562E-1,9.823322296E0,9.918265389E0
1.104577787E1,1.345851288E0,-1.348695374E-1,9.801617432E0,9.894504018E0
1.105580988E1,1.337169342E0,-1.309776306E-1,9.821076965E0,9.912554149E0
1.106584087E1,1.336121521E0,-1.181044006E-1,9.790091400E0,9.881551447E0
1.107587287E1,1.314266968E0,-8.966354370E-2,9.751322021E0,9.839899307E0
1.108590388E1,1.283281403E0,-7.529342651E-2,9.730964355E0,9.815505466E0
1.109593588E1,1.299148407E0,-4.939727783E-2,9.764494629E0,9.850664040E0
1.110596687E1,1.312321014E0,-2.649490356E-2,9.808952179E0,9.896384758E0
1.111599888E1,1.332978058E0,1.137634277E-2,9.832303619E0,9.922255509E0
1.112602988E1,1.329834595E0,3.487747192E-2,9.818232880E0,9.907944962E0
1.113606187E1,1.287772064E0,5.044509888E-2,9.751022644E0,9.835819447E0
1.114609287E1,1.271306305E0,3.532653809E-2,9.776469727E0,9.858845166E0
1.115612488E1,1.254990234E0,-1.646575928E-3,9.826465759E0,9.906282477E0
1.116615588E1,1.269809418E0,3.442840576E-3,9.798324280E0,9.880262471E0
1.117618787E1,1.260678406E0,-1.047821045E-3,9.730215912E0,9.811544875E0
1.118621887E1,1.287173309E0,-8.981323242E-4,9.770033112E0,9.854459038E0
1.119625088E1,1.336570587E0,-5.074447632E-2,9.862241364E0,9.952527350E0
1.120628187E1,1.391057281E0,-7.125183105E-2,9.815089417E0,9.913430155E0
1.121631387E1,1.391805725E0,-1.086740112E-1,9.812694397E0,9.911503647E0
1.122634488E1,1.372346191E0,-1.658551025E-1,9.790540466E0,9.887645049E0
1.123637688E1,1.340761871E0,-1.853146362E-1,9.781409454E0,9.874611629E0
1.124640787E1,1.341959381E0,-1.895059204E-1,9.787247314E0,9.880636491E0
1.125643987E1,1.360221405E0,-1.508862305E-1,9.817783813E0,9.912711432E0
1.126647088E1,1.341510315E0,-7.020401001E-2,9.775571594E0,9.867440323E0
1.127650287E1,1.289268951E0,7.933502197E-3,9.672136688E0,9.757689557E0
1.128653387E1,1.279090118E0,4.460723877E-2,9.617200928E0,9.701990261E0
1.129656588E1,1.294358368E0,2.125579834E-2,9.677974548E0,9.764169537E0
1.130659688E1,1.322799225E0,1.242416382E-2,9.748627625E0,9.837971982E0
1.131662887E1,1.372196503E0,-8.981323242E-3,9.826914825E0,9.922260775E0
1.132665987E1,1.366059265E0,-2.724334717E-2,9.871671753E0,9.965779614E0
1.133669188E1,1.359622650E0,-5.852828979E-2,9.873468018E0,9.966813433E0
1.134672288E1,1.337169342E0,-8.217910767E-2,9.852511597E0,9.943176556E0
1.135675487E1,1.317111053E0,-8.217910767E-2,9.808353424E0,9.896733392E0
1.136678587E1,1.300495605E0,-8.337661743E-2,9.759255524E0,9.845877760E0
1.137681788E1,1.277742920E0,-6.765930176E-2,9.724228363E0,9.808048838E0
1.138684887E1,1.289119263E0,-5.748046875E-2,9.715396729E0,9.800717630E0
1.139688087E1,1.302890625E0,-5.673202515E-2,9.748028870E0,9.834877190E0
1.140691188E1,1.310674438E0,-7.649093628E-2,9.775870972E0,9.863638862E0
1.141694388E1,1.321452026E0,-7.978408813E-2,9.777667236E0,9.866882869E0
1.142697487E1,1.319955139E0,-8.337661743E-2,9.769584045E0,9.858702027E0
1.143700687E1,1.305734711E0,-8.816665649E-2,9.784403229E0,9.871538028E0
1.144703788E1,1.319356384E0,-9.624984741E-2,9.799521790E0,9.888406980E0
1.145706987E1,1.347647552E0,-8.846603394E-2,9.814640350E0,9.907125989E0
1.146710087E1,1.357527008E0,-8.666976929E-2,9.808203735E0,9.902083202E0
1.147713288E1,1.364412689E0,-7.903564453E-2,9.779762878E0,9.874797749E0
1.148716388E1,1.330882416E0,-5.284011841E-2,9.751471710E0,9.842014052E0
1.149719587E1,1.311273193E0,-6.286926270E-2,9.850415955E0,9.937508964E0
1.150722687E1,1.322350159E0,-5.313949585E-2,9.815089417E0,9.903909026E0
1.151725888E1,1.343456268E0,-5.718109131E-2,9.755213928E0,9.847453641E0
1.152728987E1,1.342258759E0,-7.753875732E-2,9.730814667E0,9.823259383E0
1.153732187E1,1.330133972E0,-8.322692871E-2,9.773326263E0,9.863776627E0
1.154735288E1,1.338516541E0,-1.236428833E-1,9.830956421E0,9.922430057E0
1.155738488E1,1.358724518E0,-1.356179810E-1,9.846524048E0,9.940752506E0
1.156741587E1,1.341210938E0,-1.079255676E-1,9.795480194E0,9.887463120E0
1.157744787E1,1.344204712E0,-8.966354370E-2,9.778116302E0,9.870485514E0
1.158747888E1,1.349144440E0,-7.065307617E-2,9.764344940E0,9.857363475E0
1.159751087E1,1.342857513E0,-4.355941772E-2,9.715696106E0,9.808155512E0
1.160754187E1,1.296603699E0,-3.397933960E-2,9.729018402E0,9.815097290E0
1.161757388E1,1.288670197E0,-4.101470947E-2,9.770781555E0,9.855481991E0
1.162760488E1,1.292711792E0,-7.095245361E-2,9.798324280E0,9.883486061E0
1.163763687E1,1.327589264E0,-9.041198730E-2,9.828561401E0,9.918230024E0
1.164766787E1,1.338067474E0,-1.104702759E-1,9.808353424E0,9.899819450E0
1.165769988E1,1.341360626E0,-1.323248291E-1,9.796228638E0,9.888521311E0
1.166773088E1,1.333277435E0,-1.273851013E-1,9.805060272E0,9.896113511E0
1.167776287E1,1.302142181E0,-1.486408997E-1,9.789792023E0,9.877129959E0
1.168779387E1,1.284179535E0,-1.514849854E-1,9.758956146E0,9.844251614E0
1.169782588E1,1.290167084E0,-1.386117554E-1,9.749376068E0,9.835348394E0
1.170785687E1,1.306932220E0,-1.383123779E-1,9.753267975E0,9.841414448E0
1.171788887E1,1.325194244E0,-1.395098877E-1,9.754315796E0,9.844911348E0
1.172791988E1,1.341061249E0,-1.474433899E-1,9.757159882E0,9.849992578E0
1.173795188E1,1.350192261E0,-1.510359192E-1,9.763746185E0,9.857817738E0
1.174798287E1,1.337019653E0,-1.477427673E-1,9.778116302E0,9.870208098E0
1.175801487E1,1.340911560E0,-1.480421448E-1,9.775122528E0,9.867774862E0
1.176804588E1,1.328337708E0,-1.411564636E-1,9.787995758E0,9.878728014E0
1.177807787E1,1.319356384E0,-1.336720276E-1,9.794881439E0,9.884243617E0
1.178810887E1,1.310225372E0,-1.155596924E-1,9.803563385E0,9.891405341E0
1.179814088E1,1.293609924E0,-9.909393311E-2,9.789792023E0,9.875387288E0
1.180817188E1,1.285826111E0,-6.945556641E-2,9.733059998E0,9.817872976E0
1.181820387E1,1.279988251E0,-6.361770630E-2,9.734556885E0,9.818554623E0
1.182823487E1,1.274000702E0,-8.217910767E-2,9.773176575E0,9.856206753E0
1.183826688E1,1.289568329E0,-9.699829102E-2,9.770631866E0,9.855843049E0
1.184829788E1,1.315614166E0,-1.046324158E-1,9.780661011E0,9.869301818E0
1.185832987E1,1.325942688E0,-1.231938171E-1,9.783205719E0,9.873419614E0
1.186836087E1,1.323996735E0,-1.428030396E-1,9.770482178E0,9.860815486E0
1.187839288E1,1.321901093E0,-1.535806274E-1,9.746382294E0,9.836817439E0
1.188842387E1,1.303639069E0,-1.779798889E-1,9.771080933E0,9.859268444E0
1.189845587E1,1.302441559E0,-1.731898499E-1,9.797126770E0,9.884838981E0
1.190848688E1,1.298549652E0,-1.513352966E-1,9.739646301E0,9.826995657E0
1.191851887E1,1.252295837E0,-1.571731567E-1,9.643995209E0,9.726232151E0
1.192854987E1,1.247655487E0,-1.532812500E-1,9.710307312E0,9.791333283E0
1.193858150E1,1.301842804E0,-2.189945984E-1,9.851613464E0,9.939670074E0
1.194861250E1,1.384770355E0,-2.336640930E-1,9.912387085E0,1.001137381E1
1.195864450E1,1.412612457E0,-2.065704346E-1,9.858948212E0,9.961777208E0
1.196867550E1,1.351090393E0,-1.883084106E-1,9.803862762E0,9.898314522E0
1.197870750E1,1.293609924E0,-1.353186035E-1,9.755513306E0,9.841838122E0
1.198873850E1,1.238374786E0,-1.124162292E-1,9.699380035E0,9.778761813E0
1.199877050E1,1.232536926E0,-8.038284302E-2,9.719288635E0,9.797457846E0
1.200880150E1,1.242566071E0,-4.355941772E-2,9.765243073E0,9.844076398E0
1.201883350E1,1.260828094E0,-1.077758789E-2,9.770781555E0,9.851800639E0
1.202886450E1,1.278940430E0,2.439926147E-2,9.782307587E0,9.865587953E0
1.203889650E1,1.306782532E0,3.397933960E-2,9.798024902E0,9.884843305E0
1.204892750E1,1.317709808E0,3.008743286E-2,9.820178833E0,9.908237820E0
1.205895950E1,1.321601715E0,6.735992432E-3,9.855804749E0,9.944021506E0
1.206899050E1,1.330583038E0,-2.664459229E-2,9.843530273E0,9.933088613E0
1.207902250E1,1.315464478E0,-4.790039063E-2,9.824519806E0,9.912312074E0
1.208905350E1,1.299597473E0,-8.427474976E-2,9.805509338E0,9.891616107E0
1.209908550E1,1.313368835E0,-1.175056458E-1,9.805659027E0,9.893922085E0
1.210911650E1,1.321152649E0,-1.190025330E-1,9.771080933E0,9.860711360E0
1.211914850E1,1.321002960E0,-1.398092651E-1,9.736053772E0,9.826257604E0
1.212917950E1,1.327589264E0,-1.477427673E-1,9.719887390E0,9.811245184E0
1.213921150E1,1.310524750E0,-1.375639343E-1,9.725425873E0,9.814290976E0
1.214924250E1,1.313368835E0,-1.447489929E-1,9.758507080E0,9.847555555E0
1.215927450E1,1.306632843E0,-1.372645569E-1,9.763446808E0,9.851447839E0
1.216930550E1,1.310973816E0,-1.308279419E-1,9.779912567E0,9.868255070E0
1.217933750E1,1.301393738E0,-1.004411316E-1,9.789492645E0,9.876126788E0
1.218936850E1,1.301842804E0,-8.831634521E-2,9.790241089E0,9.876811988E0
1.219940050E1,1.274150391E0,-6.885681152E-2,9.811945953E0,9.894568402E0
1.220943150E1,1.272354126E0,-4.296066284E-2,9.798923035E0,9.881276399E0
1.221946350E1,1.258283386E0,-8.083190918E-3,9.727222137E0,9.808271659E0
1.222949450E1,1.233435059E0,2.814147949E-2,9.835147705E0,9.912229031E0
1.223952650E1,1.235979767E0,5.388793945E-2,9.827064514E0,9.904632596E0
1.224955750E1,1.244362335E0,8.322692871E-2,9.764794006E0,9.844113283E0
1.225958950E1,1.238674164E0,9.460327148E-2,9.716444550E0,9.795537665E0
1.226962050E1,1.234482880E0,8.307723999E-2,9.710906067E0,9.789409913E0
1.227965250E1,1.239422607E0,4.281097412E-2,9.791139221E0,9.869367175E0
1.228968350E1,1.272653503E0,5.538482666E-3,9.864786072E0,9.946541201E0
1.229971550E1,1.297651520E0,-2.814147949E-2,9.875563660E0,9.960494416E0
1.230974650E1,1.337019653E0,-5.149291992E-2,9.858648834E0,9.949031607E0
1.231977850E1,1.352437592E0,-6.002517700E-2,9.840237122E0,9.932922887E0
1.232980950E1,1.344354401E0,-5.673202515E-2,9.815688171E0,9.907484118E0
1.233984150E1,1.319356384E0,-4.355941772E-2,9.770931244E0,9.859700607E0
1.234987250E1,1.275497589E0,-1.721420288E-2,9.725725250E0,9.809022483E0
1.235990450E1,1.254241791E0,-1.347198486E-2,9.763446808E0,9.843688208E0
1.236993550E1,1.288819885E0,-2.230361938E-2,9.808203735E0,9.892543387E0
1.237996750E1,1.316811676E0,-1.901046753E-2,9.784253540E0,9.872485590E0
1.238999850E1,1.331181793E0,-8.681945801E-3,9.772877197E0,9.863125724E0
1.240003050E1,1.311722260E0,-1.526824951E-2,9.779313812E0,9.866905647E0
1.241006150E1,1.298549652E0,-2.709365845E-2,9.800120544E0,9.885814481E0
1.242009350E1,1.286724243E0,-3.427871704E-2,9.783505096E0,9.867816693E0
1.243012450E1,1.263971558E0,-2.514770508E-2,9.762997742E0,9.844510217E0
1.244015650E1,1.256636810E0,-3.712280273E-2,9.777068481E0,9.857564723E0
1.245018750E1,1.276545410E0,-2.125579834E-2,9.777966614E0,9.860966032E0
1.246021950E1,1.281634827E0,-5.987548828E-3,9.779463501E0,9.863089275E0
1.247025050E1,1.295855255E0,2.499801636E-2,9.770033112E0,9.855628480E0
1.248028250E1,1.279688873E0,5.688171387E-3,9.787397003E0,9.870702916E0
1.249031350E1,1.280587006E0,8.532257080E-3,9.801168365E0,9.884476577E0
1.250034550E1,1.268761597E0,1.511856079E-2,9.804012451E0,9.885779924E0
1.251037650E1,1.276395721E0,1.272354126E-2,9.801617432E0,9.884384260E0
1.252040850E1,1.254241791E0,2.694396973E-2,9.801018677E0,9.880982519E0
1.253043950E1,1.272354126E0,1.347198486E-2,9.804012451E0,9.886239258E0
1.254047150E1,1.278341675E0,2.230361938E-2,9.805509338E0,9.888511934E0
1.255050250E1,1.267713776E0,2.350112915E-2,9.799970856E0,9.881653672E0
1.256053450E1,1.255738678E0,1.437011719E-2,9.795330505E0,9.875504333E0
1.257056550E1,1.248703308E0,1.347198486E-2,9.791139221E0,9.870453318E0
1.258059750E1,1.259031830E0,1.481918335E-2,9.791139221E0,9.871767218E0
1.259062850E1,1.272653503E0,-1.122665405E-2,9.795330505E0,9.877665346E0
1.260066050E1,1.274599457E0,-1.496887207E-4,9.795330505E0,9.877909875E0
1.261069150E1,1.280736694E0,-1.287322998E-2,9.805958405E0,9.889250347E0
1.262072350E1,1.295555878E0,-2.020797729E-2,9.806706848E0,9.891934725E0
1.263075450E1,1.293460236E0,-2.395019531E-2,9.801318054E0,9.886326345E0
1.264078650E1,1.274599457E0,-2.290237427E-2,9.768685913E0,9.851515252E0
1.265081750E1,1.265019379E0,-1.392105103E-2,9.776769104E0,9.858279867E0
1.266084950E1,1.272503815E0,-1.227447510E-2,9.799671478E0,9.881952120E0
1.267088050E1,1.292861481E0,2.454895020E-2,9.786199493E0,9.871261013E0
1.268091250E1,1.274898834E0,5.763015747E-2,9.755513306E0,9.838634465E0
1.269094350E1,1.249002686E0,5.658233643E-2,9.770332489E0,9.850005392E0
1.270097550E1,1.262774048E0,4.041595459E-2,9.780810699E0,9.862073295E0
1.271100650E1,1.285975800E0,4.700225830E-2,9.821226654E0,9.905172182E0
1.272103850E1,1.279090118E0,4.760101318E-2,9.797875214E0,9.881128280E0
1.273106950E1,1.233135681E0,4.146377563E-2,9.700427856E0,9.778580851E0
1.274110150E1,1.224004669E0,1.152603149E-2,9.796677704E0,9.872852390E0
1.275113250E1,1.266665955E0,-1.901046753E-2,9.898016968E0,9.978754628E0
1.276116450E1,1.307530975E0,1.032852173E-2,9.876461792E0,9.962642293E0
1.277119550E1,1.313219147E0,-7.185058594E-3,9.877808990E0,9.964723107E0
1.278122750E1,1.272803192E0,1.062789917E-2,9.739197235E0,9.822021365E0
1.279125850E1,1.226848755E0,1.197509766E-3,9.704469452E0,9.781711846E0
1.280129050E1,1.227896576E0,-6.002517700E-2,9.745334473E0,9.822569776E0
1.281132150E1,1.278341675E0,-7.664062500E-2,9.872719574E0,9.955431834E0
1.282135350E1,1.323847046E0,-6.511459351E-2,9.905501404E0,9.993786518E0
1.283138450E1,1.333876190E0,-2.874023438E-2,9.833501129E0,9.923597944E0
1.284141650E1,1.290316772E0,3.562591553E-2,9.756112061E0,9.841133528E0
1.285144750E1,1.267863464E0,9.116043091E-2,9.718689880E0,9.801465247E0
1.286147950E1,1.263223114E0,1.236428833E-1,9.734706573E0,9.817104067E0
1.287151050E1,1.273252258E0,1.338217163E-1,9.768386536E0,9.851926465E0
1.288154250E1,1.287322998E0,1.558259583E-1,9.777218170E0,9.862833131E0
1.289157350E1,1.283131714E0,1.688488770E-1,9.810149689E0,9.895149006E0
1.290160550E1,1.265468445E0,1.710942078E-1,9.835746460E0,9.918295823E0
1.291163650E1,1.259780273E0,1.907034302E-1,9.828860779E0,9.911100764E0
1.292166850E1,1.249002686E0,1.889071655E-1,9.749525757E0,9.831019586E0
1.293169942E1,1.226699066E0,1.522334290E-1,9.721084900E0,9.799360043E0
1.294173142E1,1.222657471E0,1.236428833E-1,9.727222137E0,9.804541262E0
1.295176242E1,1.229692841E0,8.382568359E-2,9.761201477E0,9.838710561E0
1.296179442E1,1.246757355E0,-1.841171265E-2,9.825417938E0,9.904220341E0
1.297182542E1,1.270408173E0,-9.265731812E-2,9.883347473E0,9.965093054E0
1.298185742E1,1.293759613E0,-1.478924561E-1,9.896370392E0,9.981674862E0
1.299188842E1,1.306932220E0,-1.764830017E-1,9.898915100E0,9.986377633E0
1.300192042E1,1.317859497E0,-1.805245972E-1,9.908195801E0,9.997083915E0
1.301195142E1,1.328337708E0,-1.540296936E-1,9.870174866E0,9.960349296E0
1.302198342E1,1.343605957E0,-1.496887207E-1,9.826914825E0,9.919472701E0
1.303201442E1,1.339264984E0,-1.073268127E-1,9.818981323E0,9.910476475E0
1.304204642E1,1.321452026E0,-5.643264771E-2,9.738897858E0,9.828303596E0
1.305207742E1,1.280886383E0,-1.122665405E-2,9.729617157E0,9.813574577E0
1.306210942E1,1.241967316E0,4.206253052E-2,9.771380310E0,9.850082499E0
1.307214042E1,1.256636810E0,6.795867920E-2,9.781259766E0,9.861886080E0
1.308217242E1,1.327589264E0,4.565505981E-2,9.856403503E0,9.945514952E0
1.309220342E1,1.378633118E0,4.340972900E-2,9.881700897E0,9.977501005E0
1.310223542E1,1.355281677E0,6.616241455E-2,9.861792297E0,9.954703070E0
1.311226642E1,1.309177551E0,8.607101440E-2,9.831555176E0,9.918711169E0
1.312229842E1,1.274449768E0,1.023870850E-1,9.799072723E0,9.882131934E0
1.313232942E1,1.268611908E0,1.426533508E-1,9.755213928E0,9.838390363E0
1.314236142E1,1.252295837E0,1.402583313E-1,9.714947662E0,9.796332239E0
1.315239242E1,1.231938171E0,9.879455566E-2,9.714348907E0,9.792650648E0
1.316242442E1,1.245709534E0,5.538482666E-2,9.784852295E0,9.863984700E0
1.317245542E1,1.280587006E0,-0.000000000E0,9.839338989E0,9.922323056E0
1.318248742E1,1.302591248E0,-4.415817261E-2,9.887688446E0,9.973217972E0
1.319251842E1,1.319655762E0,-8.277786255E-2,9.882748718E0,9.970810686E0
1.320255042E1,1.308129730E0,-1.110690308E-1,9.845925293E0,9.933065217E0
1.321258142E1,1.275796967E0,-1.272354126E-1,9.804611206E0,9.888086147E0
1.322261342E1,1.257984009E0,-1.294807434E-1,9.777966614E0,9.859407697E0
1.323264442E1,1.239572296E0,-1.230441284E-1,9.740544434E0,9.819871954E0
1.324267642E1,1.231189728E0,-1.309776306E-1,9.702523499E0,9.781203685E0
1.325270742E1,1.235231323E0,-1.246907043E-1,9.674382019E0,9.753717837E0
1.326273942E1,1.258882141E0,-1.074765015E-1,9.663754120E0,9.745998109E0
1.327277042E1,1.266067200E0,-1.073268127E-1,9.715546417E0,9.798279818E0
1.328280242E1,1.287322998E0,-9.759704590E-2,9.740544434E0,9.825728042E0
1.329283342E1,1.315913544E0,-7.140151978E-2,9.774823151E0,9.863259819E0
1.330286542E1,1.313368835E0,-3.532653809E-2,9.779164124E0,9.867027750E0
1.331289642E1,1.287322998E0,-2.335144043E-2,9.771979065E0,9.856435493E0
1.332292842E1,1.288370819E0,-6.885681152E-3,9.800419922E0,9.884744682E0
1.333296042E1,1.282383270E0,5.837860107E-3,9.800868988E0,9.884410648E0
1.334299142E1,1.266216888E0,2.365081787E-2,9.809251556E0,9.890666341E0
1.335302242E1,1.268312531E0,3.472778320E-2,9.820029144E0,9.901656179E0
1.336305442E1,1.250948639E0,2.439926147E-2,9.828262024E0,9.907583067E0
1.337308542E1,1.260977783E0,2.664459229E-2,9.847571869E0,9.928013226E0
1.338311742E1,1.268462219E0,3.278182983E-2,9.849817200E0,9.931211906E0
1.339314942E1,1.278191986E0,3.353027344E-2,9.818382568E0,9.901289577E0
1.340318042E1,1.277293854E0,3.203338623E-2,9.789642334E0,9.872669485E0
1.341321142E1,1.276395721E0,5.239105225E-3,9.781259766E0,9.864190595E0
1.342324342E1,1.283730469E0,-1.541793823E-2,9.800120544E0,9.883853718E0
1.343327442E1,1.319506073E0,-2.320175171E-2,9.801168365E0,9.889617582E0
1.344330642E1,1.335822144E0,-3.008743286E-2,9.802365875E0,9.893012827E0
1.345333742E1,1.333876190E0,-3.562591553E-2,9.784403229E0,9.874970453E0
1.346336942E1,1.320553894E0,-2.933898926E-2,9.726174316E0,9.815456698E0
1.347340042E1,1.272054749E0,-5.553451538E-2,9.725126495E0,9.808123812E0
1.348343242E1,1.261426849E0,-9.774673462E-2,9.753717041E0,9.835433302E0
1.349346342E1,1.290915527E0,-1.041833496E-1,9.762848053E0,9.848376474E0
1.350349542E1,1.282982025E0,-9.729766846E-2,9.712852020E0,9.797704021E0
1.351352642E1,1.277742920E0,-7.334747314E-2,9.671837311E0,9.756149024E0
1.352355842E1,1.288969574E0,-9.699829102E-2,9.739945679E0,9.825344424E0
1.353358942E1,1.324894867E0,-1.486408997E-1,9.842033386E0,9.931921350E0
1.354362142E1,1.382674713E0,-1.451980591E-1,9.858349457E0,9.955899048E0
1.355365242E1,1.373094635E0,-1.466949463E-1,9.854607239E0,9.950889011E0
1.356368442E1,1.338666229E0,-1.152603149E-1,9.822124786E0,9.913599121E0
1.357371642E1,1.289119263E0,-5.852828979E-2,9.735455017E0,9.820607844E0
1.358374742E1,1.233884125E0,-3.906875610E-2,9.727222137E0,9.805245887E0
1.359377842E1,1.225800934E0,3.742218018E-3,9.781110077E0,9.857622242E0
1.360381042E1,1.239123230E0,6.541397095E-2,9.800868988E0,9.879106148E0
1.361384142E1,1.260229340E0,9.520202637E-2,9.782157898E0,9.863460577E0
1.362387342E1,1.282982025E0,1.169068909E-1,9.766590271E0,9.851192599E0
1.363390442E1,1.292113037E0,1.145118713E-1,9.775272217E0,9.860964252E0
1.364393642E1,1.294358368E0,7.694000244E-2,9.826166382E0,9.911348501E0
1.365396742E1,1.287472687E0,2.619552612E-2,9.856403503E0,9.940169121E0
1.366399942E1,1.267115021E0,-7.783813477E-3,9.843679962E0,9.924901826E0
1.367403142E1,1.274599457E0,-5.972579956E-2,9.820627899E0,9.903176424E0
1.368406242E1,1.285377045E0,-9.101074219E-2,9.811047821E0,9.895308810E0
1.369409442E1,1.296603699E0,-1.197509766E-1,9.771979065E0,9.858351601E0
1.370412542E1,1.307381287E0,-1.417552185E-1,9.740993500E0,9.829358816E0
1.371415642E1,1.298849030E0,-1.371148682E-1,9.708511047E0,9.795968357E0
1.372418842E1,1.289418640E0,-1.347198486E-1,9.686207428E0,9.772582269E0
1.373421942E1,1.287772064E0,-1.362167358E-1,9.718839569E0,9.804731228E0
1.374425142E1,1.294657745E0,-1.378633118E-1,9.745334473E0,9.831921936E0
1.375428242E1,1.321601715E0,-1.287322998E-1,9.753717041E0,9.843688293E0
1.376431442E1,1.332229614E0,-1.267863464E-1,9.745484161E0,9.836939161E0
1.377434642E1,1.334924011E0,-1.202000427E-1,9.745933228E0,9.837666626E0
1.378437742E1,1.344803467E0,-9.654922485E-2,9.771080933E0,9.863662642E0
1.379440842E1,1.340612183E0,-7.409591675E-2,9.787097626E0,9.878765670E0
1.380444042E1,1.325194244E0,-2.769241333E-2,9.732760620E0,9.822603318E0
1.381447242E1,1.286574554E0,-1.272354126E-2,9.812395020E0,9.896389846E0
1.382450342E1,1.280587006E0,2.185455322E-2,9.834249573E0,9.917300306E0
1.383453442E1,1.274000702E0,3.532653809E-2,9.787546692E0,9.870177101E0
1.384456642E1,1.261726227E0,1.646575928E-2,9.763895874E0,9.845094557E0
1.385459842E1,1.241218872E0,2.245330811E-3,9.758357391E0,9.836979633E0
1.386462942E1,1.224753113E0,-9.580078125E-3,9.768386536E0,9.844871125E0
1.387466142E1,1.210382996E0,-6.032455444E-2,9.810149689E0,9.884720682E0
1.388469242E1,1.258582764E0,-1.041833496E-1,9.873018951E0,9.953461104E0
1.389472442E1,1.348545685E0,-1.146615601E-1,9.895771637E0,9.987893623E0
1.390475542E1,1.382375336E0,-1.100212097E-1,9.858499146E0,9.955554813E0
1.391478742E1,1.359922028E0,-1.079255676E-1,9.802066498E0,9.896541996E0
1.392481842E1,1.315464478E0,-7.933502197E-2,9.755513306E0,9.844124171E0
1.393484975E1,1.293310547E0,-5.882766724E-2,9.723030853E0,9.808845082E0
1.394488175E1,1.282832336E0,-5.957611084E-2,9.732461243E0,9.816822804E0
1.395491375E1,1.288520508E0,-4.834945679E-2,9.776769104E0,9.861431787E0
1.396494475E1,1.331780548E0,-4.640350342E-2,9.754315796E0,9.844920993E0
1.397497675E1,1.319057007E0,-5.688171387E-2,9.727970581E0,9.817156337E0
1.398500775E1,1.288071442E0,-4.550537109E-2,9.748627625E0,9.833460192E0
1.399503975E1,1.267713776E0,-5.942642212E-2,9.777068481E0,9.859092139E0
1.400507075E1,1.256636810E0,-3.712280273E-2,9.793983307E0,9.874341659E0
1.401510175E1,1.249002686E0,-6.047424316E-2,9.759704590E0,9.839486700E0
1.402513375E1,1.217418365E0,-5.284011841E-2,9.727222137E0,9.803252015E0
1.403516575E1,1.206640778E0,-5.358856201E-2,9.747280426E0,9.821829229E0
1.404519675E1,1.230141907E0,-3.323089600E-2,9.772128754E0,9.849307274E0
1.405522875E1,1.228195953E0,-3.951782227E-2,9.786798248E0,9.863642680E0
1.406525975E1,1.264570312E0,-3.921844482E-2,9.777966614E0,9.859478042E0
1.407529175E1,1.261576538E0,-4.370910645E-2,9.788594513E0,9.869653914E0
1.408532275E1,1.269060974E0,-5.478607178E-2,9.795929260E0,9.877942465E0
1.409535475E1,1.264270935E0,-3.652404785E-2,9.798024902E0,9.879322193E0
1.410538575E1,1.281335449E0,-3.817062378E-2,9.797575836E0,9.881081408E0
1.411541775E1,1.281185760E0,-2.275268555E-2,9.785451050E0,9.868992192E0
1.412544875E1,1.288670197E0,-1.017883301E-2,9.780960388E0,9.865493429E0
1.413548075E1,1.277742920E0,-3.592529297E-3,9.777367859E0,9.860505166E0
1.414551175E1,1.291813660E0,-8.981323242E-3,9.786947937E0,9.871839399E0
1.415554375E1,1.305734711E0,-1.302291870E-2,9.813143463E0,9.899641274E0
1.416557475E1,1.306483154E0,-1.631607056E-2,9.776020660E0,9.862948058E0
1.417560675E1,1.280886383E0,-1.496887207E-2,9.762249298E0,9.845933442E0
1.418563775E1,1.287023621E0,-2.664459229E-2,9.791288910E0,9.875549516E0
1.419566975E1,1.299597473E0,-2.365081787E-2,9.838291168E0,9.923783858E0
1.420570075E1,1.295256500E0,2.993774414E-3,9.811197510E0,9.896327346E0
1.421573175E1,1.281335449E0,1.152603149E-2,9.755213928E0,9.839011748E0
1.422576375E1,1.232836304E0,1.526824951E-2,9.714498596E0,9.792425718E0
1.423579575E1,1.201251984E0,-2.544708252E-3,9.765542450E0,9.839147938E0
1.424582675E1,1.216220856E0,-1.451980591E-2,9.816286926E0,9.891354458E0
1.425585875E1,1.235680389E0,-2.993774414E-4,9.731114044E0,9.809255153E0
1.426588975E1,1.218316498E0,8.382568359E-3,9.700278168E0,9.776490264E0
1.427592175E1,1.239871674E0,-1.302291870E-2,9.807754669E0,9.885823335E0
1.428595275E1,1.299747162E0,-2.080673218E-2,9.873767395E0,9.958968731E0
1.429598475E1,1.328936462E0,-1.451980591E-2,9.873318329E0,9.962364065E0
1.430601575E1,1.290915527E0,-1.796264648E-3,9.739346924E0,9.824527705E0
1.431604775E1,1.205592957E0,-3.293151855E-3,9.661359100E0,9.736289072E0
1.432607875E1,1.150507507E0,-4.116439819E-2,9.648934937E0,9.717371427E0
1.433611075E1,1.177152100E0,-8.128097534E-2,9.664502563E0,9.736267430E0
1.434614175E1,1.221459961E0,-1.137634277E-1,9.695338440E0,9.772640074E0
1.435617275E1,1.275048523E0,-1.103205872E-1,9.761500854E0,9.845040289E0
1.436620475E1,1.313967590E0,-8.756790161E-2,9.770931244E0,9.859273621E0
1.437623675E1,1.298250275E0,-7.948471069E-2,9.801617432E0,9.887541447E0
1.438626775E1,1.307980042E0,-5.673202515E-2,9.847422180E0,9.934070359E0
1.439629975E1,1.340612183E0,-3.802093506E-2,9.933044128E0,1.002317576E1
1.440633075E1,1.323248291E0,-6.286926270E-3,9.965227203E0,1.005270007E1
1.441636275E1,1.270707550E0,2.589614868E-2,9.932744751E0,1.001372990E1
1.442639375E1,1.225202179E0,3.158432007E-2,9.883796539E0,9.959495569E0
1.443642575E1,1.168919220E0,5.343887329E-2,9.824220428E0,9.893661349E0
1.444645675E1,1.159189453E0,6.885681152E-2,9.796078949E0,9.864665439E0
1.445648875E1,1.181193695E0,7.918533325E-2,9.772428131E0,9.843873244E0
1.446651975E1,1.216220856E0,7.080276489E-2,9.786349182E0,9.861888081E0
1.447655175E1,1.247805176E0,5.209167480E-2,9.806257782E0,9.885465239E0
1.448658275E1,1.283730469E0,2.305206299E-2,9.825867004E0,9.909397444E0
1.449661475E1,1.279838562E0,-1.227447510E-2,9.839488678E0,9.922382519E0
1.450664575E1,1.291663971E0,-4.520599365E-2,9.848619690E0,9.933063434E0
1.451667775E1,1.282233582E0,-6.721023560E-2,9.833201752E0,9.916677713E0
1.452670875E1,1.288819885E0,-5.927673340E-2,9.814041595E0,9.898483867E0
1.453674075E1,1.296004944E0,-6.750961304E-2,9.801617432E0,9.887157865E0
1.454677175E1,1.304686890E0,-6.077362061E-2,9.793234863E0,9.879946882E0
1.455680375E1,1.322200470E0,-4.385879517E-2,9.799372101E0,9.888267353E0
1.456683475E1,1.318907318E0,-3.338058472E-2,9.822573853E0,9.910781395E0
1.457686675E1,1.298100586E0,-2.110610962E-2,9.760902100E0,9.846863480E0
1.458689775E1,1.259480896E0,2.993774414E-4,9.785750427E0,9.866468651E0
1.459692975E1,1.202599182E0,2.125579834E-2,9.787397003E0,9.861026148E0
1.460696075E1,1.202748871E0,4.026626587E-2,9.726024628E0,9.800192920E0
1.461699275E1,1.240769806E0,3.023712158E-2,9.746681671E0,9.825386893E0
1.462702375E1,1.280886383E0,-2.035766602E-2,9.812395020E0,9.895664727E0
1.463705575E1,1.295406189E0,-2.948867798E-2,9.810000000E0,9.895203221E0
1.464708675E1,1.263522491E0,-6.242019653E-2,9.798923035E0,9.880246860E0
1.465711875E1,1.229543152E0,-8.247848511E-2,9.796228638E0,9.873432766E0
1.466714975E1,1.226250000E0,-7.933502197E-2,9.788295135E0,9.865125684E0
1.467718175E1,1.258283386E0,-7.349716187E-2,9.822573853E0,9.903112440E0
1.468721275E1,1.272803192E0,-4.161346436E-2,9.802814941E0,9.885187931E0
1.469724475E1,1.263971558E0,-4.790039062E-3,9.743837585E0,9.825478000E0
1.470727575E1,1.246308289E0,1.736389160E-2,9.747579803E0,9.826947536E0
1.471730775E1,1.251098328E0,2.769241333E-2,9.766739960E0,9.846584349E0
1.472733875E1,1.259331207E0,1.422042847E-2,9.801617432E0,9.882197204E0
1.473737075E1,1.279389496E0,1.332229614E-2,9.807006226E0,9.890115574E0
1.474740175E1,1.271905060E0,1.616638184E-2,9.835896149E0,9.917805043E0
1.475743375E1,1.285676422E0,-8.382568359E-3,9.833501129E0,9.917196105E0
1.476746475E1,1.258283386E0,1.197509766E-3,9.802814941E0,9.883241335E0
1.477749675E1,1.225800934E0,-1.781295776E-2,9.774224396E0,9.850805438E0
1.478752775E1,1.206491089E0,-1.002914429E-2,9.745334473E0,9.819738556E0
1.479755975E1,1.191222839E0,1.047821045E-3,9.761351166E0,9.833767820E0
1.480759075E1,1.211131439E0,-1.377136230E-2,9.782606964E0,9.857303284E0
1.481762275E1,1.237476654E0,-8.981323242E-3,9.818681946E0,9.896360153E0
1.482765375E1,1.262324982E0,3.293151855E-3,9.830657043E0,9.911371909E0
1.483768575E1,1.257684631E0,1.317260742E-2,9.820927277E0,9.901139163E0
1.484771675E1,1.252744904E0,1.736389160E-2,9.822124786E0,9.901707258E0
1.485774875E1,1.231638794E0,3.397933960E-2,9.795779572E0,9.872962379E0
1.486777975E1,1.229094086E0,7.035369873E-2,9.762698364E0,9.840015308E0
1.487781175E1,1.226250000E0,7.589218140E-2,9.770482178E0,9.847424570E0
1.488784275E1,1.222657471E0,8.352630615E-2,9.755662994E0,9.832335856E0
1.489787475E1,1.236728210E0,6.137237549E-2,9.789342957E0,9.867345071E0
1.490790575E1,1.267115021E0,1.736389160E-2,9.823471985E0,9.904871721E0
1.491793775E1,1.300046539E0,-1.032852173E-2,9.855355682E0,9.940737564E0
1.492796875E1,1.307530975E0,-3.547622681E-2,9.879305878E0,9.965519577E0
1.493800037E1,1.310225372E0,-8.562194824E-2,9.867181091E0,9.954159147E0
1.494803138E1,1.298399963E0,-1.044827271E-1,9.852062531E0,9.937801327E0
1.495806337E1,1.299896851E0,-1.405577087E-1,9.847571869E0,9.933990135E0
1.496809437E1,1.276994476E0,-1.329235840E-1,9.810898132E0,9.894549294E0
1.497812638E1,1.269809418E0,-1.239422607E-1,9.778715057E0,9.861594486E0
1.498815738E1,1.274300079E0,-1.269360352E-1,9.753717041E0,9.837425962E0
1.499818937E1,1.266067200E0,-1.073268127E-1,9.774224396E0,9.856465276E0
1.500822037E1,1.292861481E0,-8.652008057E-2,9.802964630E0,9.888229977E0
1.501825238E1,1.298699341E0,-6.571334839E-2,9.824370117E0,9.910054814E0
1.502828338E1,1.286873932E0,-5.119354248E-2,9.809101868E0,9.893287863E0
1.503831537E1,1.290017395E0,-1.901046753E-2,9.787546692E0,9.872212342E0
1.504834637E1,1.262175293E0,-8.981323242E-3,9.759704590E0,9.840985764E0
1.505837838E1,1.252295837E0,-2.679428101E-2,9.793234863E0,9.873014326E0
1.506840937E1,1.244362335E0,-1.856140137E-2,9.793085175E0,9.871843768E0
1.507844137E1,1.244811401E0,1.990859985E-2,9.746082916E0,9.825277807E0
1.508847238E1,1.237776031E0,1.272354126E-2,9.743837585E0,9.822149576E0
1.509850438E1,1.272354126E0,-1.392105103E-2,9.852361908E0,9.934189146E0
1.510853537E1,1.291963348E0,-2.529739380E-2,9.809550934E0,9.894296275E0
1.511856738E1,1.310973816E0,-4.939727783E-2,9.808054047E0,9.895403813E0
1.512859838E1,1.307980042E0,-1.145118713E-1,9.817185059E0,9.904597278E0
1.513863037E1,1.291813660E0,-1.196012878E-1,9.821226654E0,9.906542282E0
1.514866137E1,1.299896851E0,-1.450483704E-1,9.786049805E0,9.873071540E0
1.515869338E1,1.313518524E0,-1.672023010E-1,9.828112335E0,9.916908772E0
1.516872438E1,1.321002960E0,-1.288819885E-1,9.865235138E0,9.954120941E0
1.517875637E1,1.305585022E0,-4.790039063E-2,9.788444824E0,9.875246770E0
1.518878737E1,1.275347900E0,-4.490661621E-3,9.690099335E0,9.773666536E0
1.519881938E1,1.251248016E0,1.990859985E-2,9.670490112E0,9.751122857E0
1.520885037E1,1.263971558E0,1.751358032E-2,9.723180542E0,9.805007429E0
1.521888237E1,1.300345917E0,-1.062789917E-2,9.795480194E0,9.881419164E0
1.522891338E1,1.314117279E0,-2.769241333E-2,9.837542725E0,9.924964380E0
1.523894538E1,1.335971832E0,-5.313949585E-2,9.871222687E0,9.961359439E0
1.524897637E1,1.320553894E0,-8.891510010E-2,9.852810974E0,9.941310405E0
1.525900837E1,1.310824127E0,-9.220825195E-2,9.817185059E0,9.904740518E0
1.526903938E1,1.295106812E0,-8.547225952E-2,9.779164124E0,9.864920583E0
1.527907137E1,1.265618134E0,-7.828720093E-2,9.730215912E0,9.812493049E0
1.528910237E1,1.270707550E0,-7.424560547E-2,9.717941437E0,9.800948722E0
1.529913438E1,1.275497589E0,-8.307723999E-2,9.726324005E0,9.809952833E0
1.530916538E1,1.287921753E0,-7.259902954E-2,9.775721283E0,9.860463461E0
1.531919737E1,1.292262726E0,-6.750961304E-2,9.790989532E0,9.876131658E0
1.532922837E1,1.316362610E0,-7.858657837E-2,9.810000000E0,9.898236528E0
1.533926038E1,1.317111053E0,-7.768844604E-2,9.829758911E0,9.917911941E0
1.534929138E1,1.321152649E0,-8.996292114E-2,9.821825409E0,9.910690794E0
1.535932337E1,1.328337708E0,-9.430389404E-2,9.816436615E0,9.906351604E0
1.536935437E1,1.330283661E0,-6.541397095E-2,9.826465759E0,9.916318012E0
1.537938638E1,1.314566345E0,-5.493576050E-2,9.788744202E0,9.876771520E0
1.538941737E1,1.309027863E0,-2.963836670E-2,9.754764862E0,9.842249229E0
1.539944937E1,1.296004944E0,-1.092727661E-2,9.780361633E0,9.865861437E0
1.540948038E1,1.294358368E0,-1.272354126E-2,9.823921051E0,9.908831934E0
1.541951238E1,1.293609924E0,-1.377136230E-2,9.758357391E0,9.843736855E0
1.542954337E1,1.296004944E0,-4.086502075E-2,9.747729492E0,9.833591868E0
1.543957537E1,1.333277435E0,-6.631210327E-2,9.759854279E0,9.850724925E0
1.544960638E1,1.318607941E0,-8.292755127E-2,9.808503113E0,9.897087309E0
1.545963837E1,1.318607941E0,-1.261875916E-1,9.836644592E0,9.925433343E0
1.546966937E1,1.333277435E0,-1.335223389E-1,9.809550934E0,9.900643740E0
1.547970138E1,1.339714050E0,-1.025367737E-1,9.764195251E0,9.856209030E0
1.548973238E1,1.322948914E0,-9.265731812E-2,9.745035095E0,9.834860864E0
1.549976437E1,1.339264984E0,-6.975494385E-2,9.731263733E0,9.823237261E0
1.550979537E1,1.331032104E0,-5.508544922E-2,9.737400970E0,9.828105541E0
1.551982738E1,1.303788757E0,-4.520599365E-2,9.742490387E0,9.829446965E0
1.552985837E1,1.299747162E0,-5.418731689E-2,9.775870972E0,9.862045032E0
1.553989037E1,1.284478912E0,-7.918533325E-2,9.837393036E0,9.921212534E0
1.554992138E1,1.291214905E0,-8.741821289E-2,9.835147705E0,9.919929851E0
1.555995338E1,1.294058990E0,-8.352630615E-2,9.817484436E0,9.902755473E0
1.556998437E1,1.296154633E0,-1.071771240E-1,9.781259766E0,9.867347484E0
1.558001637E1,1.289718018E0,-1.155596924E-1,9.767189026E0,9.852649800E0
1.559004738E1,1.272653503E0,-1.091230774E-1,9.739945679E0,9.823344472E0
1.560007937E1,1.292711792E0,-1.121168518E-1,9.731114044E0,9.817242714E0
1.561011037E1,1.314416656E0,-1.107696533E-1,9.733808441E0,9.822779028E0
1.562014238E1,1.336869965E0,-1.034349060E-1,9.744286652E0,9.836109110E0
1.563017338E1,1.355131989E0,-9.909393311E-2,9.755662994E0,9.849830596E0
1.564020537E1,1.353934479E0,-9.325607300E-2,9.771080933E0,9.864880023E0
1.565023637E1,1.358125763E0,-9.819580078E-2,9.773625641E0,9.868024431E0
1.566026838E1,1.336570587E0,-1.017883301E-1,9.785001984E0,9.876388288E0
1.567029938E1,1.315165100E0,-1.110690308E-1,9.786199493E0,9.874801066E0
1.568033137E1,1.311273193E0,-9.654922485E-2,9.807006226E0,9.894752662E0
1.569036237E1,1.295406189E0,-7.993377686E-2,9.797575836E0,9.883165428E0
1.570039438E1,1.284329224E0,-6.077362061E-2,9.789043579E0,9.873123578E0
1.571042537E1,1.289867706E0,-6.631210327E-2,9.805808716E0,9.890502544E0
1.572045737E1,1.281934204E0,-4.849914551E-2,9.809401245E0,9.892929812E0
1.573048838E1,1.285826111E0,-5.478607178E-2,9.775272217E0,9.859629669E0
1.574052038E1,1.265917511E0,-5.493576050E-2,9.741292877E0,9.823357471E0
1.575055137E1,1.252445526E0,-7.634124756E-2,9.755662994E0,9.836026039E0
1.576058337E1,1.264420624E0,-8.592132568E-2,9.778864746E0,9.860645907E0
1.577061438E1,1.279239807E0,-7.679031372E-2,9.771979065E0,9.855654523E0
1.578064637E1,1.307830353E0,-8.996292114E-2,9.775122528E0,9.862633218E0
1.579067737E1,1.327439575E0,-1.059796143E-1,9.747729492E0,9.838270059E0
1.580070938E1,1.335822144E0,-1.200503540E-1,9.723479919E0,9.815543522E0
1.581074038E1,1.317859497E0,-1.612147522E-1,9.738299103E0,9.828388132E0
1.582077237E1,1.332678680E0,-1.904040527E-1,9.767937469E0,9.860268180E0
1.583080337E1,1.344653778E0,-1.977388000E-1,9.772128754E0,9.866189477E0
1.584083538E1,1.338217163E0,-1.664538574E-1,9.704619141E0,9.797865315E0
1.585086638E1,1.312470703E0,-1.567240906E-1,9.661209412E0,9.751210647E0
1.586089837E1,1.298399963E0,-1.688488770E-1,9.753118286E0,9.840613228E0
1.587092937E1,1.329385529E0,-2.086660767E-1,9.826914825E0,9.918622001E0
1.588096138E1,1.349144440E0,-1.838177490E-1,9.811347198E0,9.905378011E0
1.589099237E1,1.326541443E0,-2.077679443E-1,9.830357666E0,9.921633513E0
1.590102437E1,1.282832336E0,-1.725910950E-1,9.833650818E0,9.918474424E0
1.591105538E1,1.250649261E0,-1.194515991E-1,9.756261749E0,9.836820400E0
1.592108737E1,1.235530701E0,-1.053808594E-1,9.769883423E0,9.848261945E0
1.593111837E1,1.239123230E0,-7.634124756E-2,9.820328522E0,9.898490119E0
1.594115067E1,1.262624359E0,-2.544708252E-2,9.837393036E0,9.918123289E0
1.595118167E1,1.257385254E0,1.182540894E-2,9.829758911E0,9.909859624E0
1.596121367E1,1.264420624E0,5.284011841E-2,9.810000000E0,9.891291705E0
1.597124467E1,1.273701324E0,6.706054688E-2,9.801916809E0,9.884552864E0
1.598127667E1,1.279389496E0,5.269042969E-2,9.826615448E0,9.909691465E0
1.599130767E1,1.297202454E0,2.574645996E-2,9.838590546E0,9.923772519E0
1.600133967E1,1.294807434E0,-1.197509766E-3,9.838440857E0,9.923277998E0
1.601137067E1,1.285826111E0,-2.275268555E-2,9.813742218E0,9.897646326E0
1.602140267E1,1.294807434E0,-7.080276489E-2,9.784552917E0,9.870107148E0
1.603143367E1,1.313668213E0,-8.547225952E-2,9.752669220E0,9.841117142E0
1.604146567E1,1.337768097E0,-9.699829102E-2,9.710606689E0,9.802801356E0
1.605149667E1,1.332229614E0,-1.239422607E-1,9.687704315E0,9.779663201E0
1.606152867E1,1.333427124E0,-1.505868530E-1,9.712402954E0,9.804666003E0
1.607155967E1,1.326541443E0,-1.630110168E-1,9.731263733E0,9.822615672E0
1.608159167E1,1.315614166E0,-1.809736633E-1,9.771679688E0,9.861506782E0
1.609162267E1,1.305884399E0,-1.791773987E-1,9.788594513E0,9.876943917E0
1.610165467E1,1.288221130E0,-1.856140137E-1,9.785451050E0,9.871626942E0
1.611168567E1,1.285077667E0,-1.454974365E-1,9.777517548E0,9.862679327E0
1.612171767E1,1.284329224E0,-1.196012878E-1,9.777367859E0,9.862085392E0
1.613174867E1,1.267115021E0,-8.592132568E-2,9.775571594E0,9.857726053E0
1.614178067E1,1.243913269E0,-5.284011841E-2,9.742340698E0,9.821573936E0
1.615181167E1,1.244512024E0,-1.871109009E-2,9.775122528E0,9.854043877E0
1.616184367E1,1.260528717E0,2.230361938E-2,9.835297394E0,9.915770516E0
1.617187467E1,1.266815643E0,5.807922363E-2,9.778265991E0,9.860156229E0
1.618190667E1,1.267414398E0,8.098159790E-2,9.747430115E0,9.829816434E0
1.619193767E1,1.270857239E0,6.825805664E-2,9.710606689E0,9.793652003E0
1.620196967E1,1.268162842E0,6.780899048E-2,9.725874939E0,9.808439141E0
1.621200067E1,1.281335449E0,1.676513672E-2,9.802665253E0,9.886068362E0
1.622203267E1,1.311572571E0,-2.020797729E-2,9.853260040E0,9.940189354E0
1.623206367E1,1.354682922E0,-3.038681030E-2,9.864337006E0,9.956969104E0
1.624209567E1,1.382525024E0,-4.819976807E-2,9.856403503E0,9.953009027E0
1.625212667E1,1.375040588E0,-3.637435913E-2,9.819430389E0,9.915304982E0
1.626215867E1,1.324296112E0,-2.604583740E-2,9.789043579E0,9.878249479E0
1.627218967E1,1.282233582E0,-1.796264648E-3,9.741741943E0,9.825765226E0
1.628222167E1,1.254092102E0,7.783813477E-3,9.737999725E0,9.818423816E0
1.629225267E1,1.231040039E0,7.185058594E-3,9.794582062E0,9.871643681E0
1.630228467E1,1.261576538E0,1.437011719E-2,9.789941711E0,9.870903736E0
1.631231567E1,1.284927979E0,1.721420288E-2,9.782756653E0,9.866796034E0
1.632234767E1,1.280137939E0,-5.388793945E-3,9.788145447E0,9.871503101E0
1.633237867E1,1.269809418E0,-1.721420288E-2,9.804012451E0,9.885917885E0
1.634241067E1,1.269210663E0,-3.233276367E-2,9.781409454E0,9.863463490E0
1.635244167E1,1.249751129E0,-4.056564331E-2,9.762548676E0,9.842300549E0
1.636247367E1,1.248104553E0,-4.266128540E-2,9.748028870E0,9.827698195E0
1.637250467E1,1.231788483E0,-4.056564331E-2,9.771679688E0,9.849095002E0
1.638253667E1,1.260977783E0,-5.792953491E-2,9.794881439E0,9.875885946E0
1.639256767E1,1.294807434E0,-5.044509888E-2,9.795779572E0,9.881111699E0
1.640259967E1,1.287772064E0,-3.742218018E-2,9.787846069E0,9.872268634E0
1.641263067E1,1.280736694E0,-2.814147949E-2,9.800868988E0,9.884235496E0
1.642266267E1,1.275647278E0,-3.742218018E-3,9.801018677E0,9.883686412E0
1.643269367E1,1.286125488E0,7.035369873E-3,9.807155914E0,9.891131148E0
1.644272567E1,1.270707550E0,9.729766846E-3,9.801767120E0,9.883796387E0
1.645275667E1,1.258433075E0,3.517684937E-2,9.807305603E0,9.887777020E0
1.646278867E1,1.279838562E0,3.772155762E-2,9.794582062E0,9.877917160E0
1.647281967E1,1.281784515E0,4.340972900E-2,9.800868988E0,9.884426583E0
1.648285167E1,1.254541168E0,5.463638306E-2,9.816885681E0,9.896873403E0
1.649288267E1,1.251846771E0,4.191284180E-2,9.810449066E0,9.890085334E0
1.650291467E1,1.268162842E0,2.095642090E-2,9.806257782E0,9.887940526E0
1.651294567E1,1.261127472E0,1.257385254E-2,9.809101868E0,9.889847322E0
1.652297767E1,1.267863464E0,-1.092727661E-2,9.802066498E0,9.883729296E0
1.653300867E1,1.266965332E0,-2.993774414E-4,9.801617432E0,9.883162729E0
1.654304067E1,1.266366577E0,-1.242416382E-2,9.797126770E0,9.878640170E0
1.655307167E1,1.272803192E0,-1.287322998E-2,9.766141205E0,9.848741428E0
1.656310367E1,1.273701324E0,-8.981323242E-3,9.765243073E0,9.847962632E0
1.657313467E1,1.281185760E0,-1.227447510E-2,9.809850311E0,9.893166871E0
1.658316667E1,1.289119263E0,4.340972900E-3,9.813891907E0,9.898197900E0
1.659319767E1,1.307381287E0,1.856140137E-2,9.786648560E0,9.873605237E0
1.660322967E1,1.277892609E0,4.340972900E-2,9.760153656E0,9.843550849E0
1.661326067E1,1.250649261E0,3.547622681E-2,9.776619415E0,9.856351725E0
1.662329267E1,1.256337433E0,2.005828857E-2,9.802515564E0,9.882717109E0
1.663332367E1,1.260528717E0,4.340972900E-3,9.802216187E0,9.882934466E0
1.664335567E1,1.243464203E0,2.948867798E-2,9.695787506E0,9.775242614E0
1.665338667E1,1.211879883E0,1.571731567E-2,9.734257507E0,9.809417368E0
1.666341867E1,1.262175293E0,-2.754272461E-2,9.884994049E0,9.965287373E0
1.667344967E1,1.313518524E0,-8.681945801E-3,9.852212219E0,9.939390922E0
1.668348167E1,1.330133972E0,-5.987548828E-3,9.874066772E0,9.963256840E0
1.669351267E1,1.293609924E0,8.532257080E-3,9.776769104E0,9.861983246E0
1.670354467E1,1.247655487E0,1.541793823E-2,9.701625366E0,9.781534474E0
1.671357567E1,1.225052490E0,-3.727249146E-2,9.742041321E0,9.818834551E0
1.672360767E1,1.259630585E0,-7.559280396E-2,9.857002258E0,9.937448214E0
1.673363867E1,1.313668213E0,-6.676116943E-2,9.904154205E0,9.991118644E0
1.674367067E1,1.321601715E0,-2.020797729E-2,9.874515839E0,9.962585132E0
1.675370167E1,1.287472687E0,2.859054565E-2,9.792486420E0,9.876800778E0
1.676373367E1,1.254541168E0,8.816665649E-2,9.711055756E0,9.792152511E0
1.677376467E1,1.259630585E0,1.368154907E-1,9.724677429E0,9.806872019E0
