"Time (s)","Acceleration x (m/s^2)","Acceleration y (m/s^2)","Acceleration z (m/s^2)","Absolute acceleration (m/s^2)"
-3.062916803E-4,5.935157776E-1,2.860551453E-1,9.445058899E0,9.468010674E0
9.724708332E-3,6.698570251E-1,3.826043701E-1,9.055419159E0,9.088218235E0
1.975670829E-2,6.788383484E-1,4.513114929E-1,8.894653473E0,8.931929465E0
2.978770831E-2,6.759942627E-1,4.899311829E-1,9.080267487E0,9.118566688E0
3.981970833E-2,6.441105652E-1,4.670288086E-1,9.425749054E0,9.459267390E0
4.985070828E-2,6.728507996E-1,3.920347595E-1,9.809550934E0,9.840412033E0
5.988170829E-2,7.068301392E-1,3.445834351E-1,1.009800110E1,1.012857210E1
6.991370831E-2,7.033872986E-1,2.944377136E-1,1.025756927E1,1.028587258E1
7.994470833E-2,6.801855469E-1,2.878514099E-1,1.022972717E1,1.025635553E1
8.997670829E-2,6.197113037E-1,2.791694641E-1,1.009800110E1,1.012084996E1
1.000077083E-1,5.746549988E-1,2.412982178E-1,9.935289459E0,9.954819428E0
1.100397083E-1,5.539979553E-1,2.249821472E-1,9.812993774E0,9.831194104E0
1.200707083E-1,5.677693176E-1,2.429447937E-1,9.720785522E0,9.740382710E0
1.301027083E-1,5.652246094E-1,2.926414490E-1,9.614955597E0,9.635999637E0
1.401337083E-1,5.563929749E-1,3.041674805E-1,9.680968323E0,9.701713182E0
1.501647083E-1,5.986051941E-1,2.860551453E-1,9.809401245E0,9.831811049E0
1.601967083E-1,6.511459351E-1,2.794688416E-1,9.907896423E0,9.933202172E0
1.702277083E-1,6.438111877E-1,2.914439392E-1,9.966724091E0,9.991747671E0
1.802597083E-1,5.960604858E-1,3.173400879E-1,9.913285217E0,9.936257677E0
1.902907083E-1,5.658233643E-1,3.143463135E-1,9.888885956E0,9.910047181E0
2.003227083E-1,5.822891235E-1,2.829116821E-1,9.881251831E0,9.902435932E0
2.103537083E-1,6.376739502E-1,2.529739380E-1,9.873617706E0,9.897421406E0
2.203857083E-1,6.761439514E-1,2.595602417E-1,9.869875488E0,9.896412699E0
2.304167083E-1,6.500981140E-1,3.011737061E-1,9.835147705E0,9.861210044E0
2.404477083E-1,6.135740662E-1,3.523672485E-1,9.764943695E0,9.790544478E0
2.504797083E-1,5.909710693E-1,3.950285339E-1,9.740544434E0,9.766447676E0
2.605107083E-1,6.138734436E-1,4.225712585E-1,9.784403229E0,9.812744449E0
2.705427083E-1,6.292913818E-1,4.243675232E-1,9.830806732E0,9.860063714E0
2.805737083E-1,6.512956238E-1,3.959266663E-1,9.868677979E0,9.898067941E0
2.906057083E-1,6.292913818E-1,3.779640198E-1,9.897268524E0,9.924454075E0
3.006367083E-1,6.186634827E-1,3.171903992E-1,9.888436890E0,9.912847138E0
3.106687083E-1,6.092330933E-1,2.833607483E-1,9.896669769E0,9.919452142E0
3.206997083E-1,5.960604858E-1,2.550695801E-1,9.882599030E0,9.903843303E0
3.307307083E-1,6.123765564E-1,2.457888794E-1,9.841734009E0,9.863830165E0
3.407627083E-1,6.333329773E-1,2.242337036E-1,9.813442841E0,9.836414580E0
3.507937083E-1,6.569837952E-1,2.324665833E-1,9.793384552E0,9.818148980E0
3.608257083E-1,6.415658569E-1,2.351609802E-1,9.787097626E0,9.810921841E0
3.708567083E-1,6.307882690E-1,2.362088013E-1,9.823471985E0,9.846536969E0
3.808887083E-1,6.303392029E-1,2.490820312E-1,9.850865021E0,9.874153687E0
3.909197083E-1,6.457571411E-1,2.656974792E-1,9.853559418E0,9.878270630E0
4.009507083E-1,6.421646118E-1,2.751278687E-1,9.869426422E0,9.894121923E0
4.109827083E-1,6.484515381E-1,2.880010986E-1,9.902357941E0,9.927745304E0
4.210137083E-1,6.390211487E-1,3.201841736E-1,9.902657318E0,9.928418197E0
4.310457083E-1,6.475534058E-1,3.589535522E-1,9.841135254E0,9.868947064E0
4.410767083E-1,6.292913818E-1,3.803590393E-1,9.783355408E0,9.810949173E0
4.511087083E-1,6.012995911E-1,3.872447205E-1,9.868977356E0,9.894858954E0
4.611397083E-1,5.727090454E-1,3.852987671E-1,9.795180817E0,9.819471372E0
4.711717083E-1,5.739065552E-1,3.734733582E-1,9.782307587E0,9.806242543E0
4.812027083E-1,6.026467896E-1,3.269201660E-1,9.824819183E0,9.848712197E0
4.912337083E-1,6.370751953E-1,2.957849121E-1,9.862241364E0,9.887221967E0
5.012657083E-1,6.399192810E-1,2.508782959E-1,9.905651093E0,9.929469279E0
5.112967083E-1,6.450086975E-1,2.415975952E-1,9.951904907E0,9.975711348E0
5.213287083E-1,6.650669861E-1,2.336640930E-1,9.926008759E0,9.951008134E0
5.313597083E-1,6.634204102E-1,2.481838989E-1,9.886041870E0,9.911384653E0
5.413917083E-1,6.671626282E-1,2.811154175E-1,9.810000000E0,9.836677887E0
5.514227083E-1,6.563850403E-1,2.989283752E-1,9.790839844E0,9.817369522E0
5.614547083E-1,6.493496704E-1,3.198847961E-1,9.790241089E0,9.816965002E0
5.714857083E-1,6.502478027E-1,3.067121887E-1,9.795480194E0,9.821829097E0
5.815167083E-1,6.517446899E-1,3.116519165E-1,9.792935486E0,9.819545992E0
5.915487083E-1,6.500981140E-1,3.109034729E-1,9.848320312E0,9.874649437E0
6.015797083E-1,6.544390869E-1,2.954855347E-1,9.874066772E0,9.900141254E0
6.116117083E-1,6.508465576E-1,2.921923828E-1,9.891879730E0,9.917573404E0
6.216427083E-1,6.551875305E-1,2.842588806E-1,9.883048096E0,9.908819984E0
6.316747083E-1,6.253994751E-1,2.899470520E-1,9.856104126E0,9.880181291E0
6.417057083E-1,6.316864014E-1,2.790197754E-1,9.858050079E0,9.882207806E0
6.517377083E-1,6.101312256E-1,2.757266235E-1,9.828411713E0,9.851190896E0
6.617687083E-1,6.057902527E-1,2.814147949E-1,9.808802490E0,9.831519842E0
6.718000000E-1,5.959107971E-1,2.652484131E-1,9.814939728E0,9.836590276E0
6.818320000E-1,6.253994751E-1,2.739303589E-1,9.850715332E0,9.874348328E0
6.918630000E-1,6.405180359E-1,2.842588806E-1,9.856553192E0,9.881432452E0
7.018949999E-1,6.441105652E-1,2.758763123E-1,9.836345215E0,9.861271386E0
7.119260000E-1,6.559359741E-1,2.829116821E-1,9.855954437E0,9.881807977E0
7.219580000E-1,6.641688538E-1,2.936892700E-1,9.842183075E0,9.868938207E0
7.319890000E-1,6.613247681E-1,2.740800476E-1,9.859247589E0,9.885202747E0
7.420199999E-1,6.727011108E-1,2.686912537E-1,9.855205994E0,9.881791687E0
7.520520000E-1,6.770420837E-1,2.674937439E-1,9.841135254E0,9.868023205E0
7.620830000E-1,6.719526672E-1,2.772235107E-1,9.825268250E0,9.852120048E0
7.721150000E-1,6.433621216E-1,2.966830444E-1,9.803713074E0,9.829279001E0
7.821460000E-1,6.494993591E-1,2.920426941E-1,9.806856537E0,9.832678856E0
7.921780000E-1,6.532415771E-1,2.872526550E-1,9.828860779E0,9.854732003E0
8.022090000E-1,6.774911499E-1,2.942880249E-1,9.864636383E0,9.892252052E0
8.122409999E-1,6.756948853E-1,2.933898926E-1,9.862989807E0,9.890460512E0
8.222720000E-1,6.686595154E-1,3.156935120E-1,9.854008484E0,9.881712966E0
8.323030000E-1,6.635700989E-1,2.847079468E-1,9.854906616E0,9.881324218E0
8.423350000E-1,6.427633667E-1,2.661465454E-1,9.866881714E0,9.891376723E0
8.523659999E-1,6.562353516E-1,2.568658447E-1,9.889185333E0,9.914263031E0
8.623980000E-1,6.677613831E-1,2.577639771E-1,9.870773621E0,9.896692347E0
8.724290000E-1,6.566844177E-1,2.853067017E-1,9.819729767E0,9.845797430E0
8.824610000E-1,6.589297485E-1,2.972817993E-1,9.799521790E0,9.826148390E0
8.924920000E-1,6.652166748E-1,2.872526550E-1,9.785301361E0,9.812092032E0
9.025240000E-1,6.807843018E-1,2.529739380E-1,9.816436615E0,9.843266272E0
9.125550000E-1,7.020401001E-1,2.249821472E-1,9.858948212E0,9.886472430E0
9.225860000E-1,7.262896729E-1,1.966909790E-1,9.876611481E0,9.905232878E0
9.326180000E-1,7.442523193E-1,1.987866211E-1,9.855505371E0,9.885565930E0
9.426490000E-1,7.198530579E-1,2.294728088E-1,9.784253540E0,9.813381860E0
9.526810000E-1,7.321275330E-1,2.170486450E-1,9.791438599E0,9.821170535E0
9.627119999E-1,7.370672607E-1,2.366578674E-1,9.872420197E0,9.902724657E0
9.727440000E-1,7.250921631E-1,2.778222656E-1,9.867929535E0,9.898433066E0
9.827750000E-1,6.818321228E-1,3.200344849E-1,9.811796265E0,9.840663751E0
9.928070000E-1,6.649172974E-1,3.800596619E-1,9.777517548E0,9.807467041E0
1.002838000E0,6.652166748E-1,3.978726196E-1,9.773176575E0,9.803866391E0
1.012869000E0,6.890171814E-1,4.016148376E-1,9.830806732E0,9.863102968E0
1.022901000E0,7.023394775E-1,3.857478333E-1,9.881551208E0,9.913986908E0
1.032932000E0,7.006929016E-1,3.405418396E-1,9.910441132E0,9.941015175E0
1.042964000E0,6.753955078E-1,3.029699707E-1,9.913135529E0,9.940734676E0
1.052995000E0,6.809339905E-1,2.643502808E-1,9.903106384E0,9.930008471E0
1.063027000E0,6.825805664E-1,2.526745605E-1,9.878108368E0,9.904886955E0
1.073058000E0,6.798861694E-1,2.624043274E-1,9.850266266E0,9.877188200E0
1.083089000E0,6.888674927E-1,2.369572449E-1,9.815239105E0,9.842235816E0
1.093121000E0,7.250921631E-1,2.562670898E-1,9.808054047E0,9.838158143E0
1.103152000E0,7.214996338E-1,2.565664673E-1,9.805509338E0,9.835364836E0
1.113184000E0,7.247927856E-1,2.692900085E-1,9.808952179E0,9.839379276E0
1.123215000E0,7.143145752E-1,2.724334717E-1,9.815538483E0,9.845265919E0
1.133247000E0,7.122189331E-1,2.703378296E-1,9.801168365E0,9.830729356E0
1.143278000E0,7.195536804E-1,2.824626160E-1,9.811496887E0,9.841900924E0
1.153310000E0,7.126679993E-1,2.974314880E-1,9.833501129E0,9.863777452E0
1.163341000E0,7.113208008E-1,2.987786865E-1,9.853858795E0,9.884016347E0
1.173372000E0,7.029382324E-1,3.152444458E-1,9.820777588E0,9.850947855E0
1.183404000E0,7.286846924E-1,3.213816833E-1,9.918674011E0,9.950596048E0
1.193435000E0,6.887178040E-1,3.496728516E-1,9.806557159E0,9.836928720E0
1.203467000E0,6.734495544E-1,3.359014893E-1,9.792037354E0,9.820914400E0
1.213498000E0,7.033872986E-1,2.839595032E-1,9.876910858E0,9.905995901E0
1.223530000E0,7.339237976E-1,2.739303589E-1,9.890682220E0,9.921656957E0
1.233561000E0,7.340734863E-1,2.766247559E-1,9.871671753E0,9.902791947E0
1.243593000E0,7.033872986E-1,2.909948730E-1,9.846074982E0,9.875455648E0
1.253624000E0,7.083270264E-1,2.935395813E-1,9.849068756E0,9.878868762E0
1.263655000E0,7.345225525E-1,2.848576355E-1,9.878557434E0,9.909922514E0
1.273687000E0,7.635621643E-1,2.917433167E-1,9.882599030E0,9.916345341E0
1.283718000E0,7.668553162E-1,3.115022278E-1,9.853559418E0,9.888262431E0
1.293750000E0,7.505392456E-1,3.219804382E-1,9.821675720E0,9.855571750E0
1.303781000E0,7.385641479E-1,3.013233948E-1,9.805209961E0,9.837602105E0
1.313813000E0,7.421566772E-1,3.091072083E-1,9.804162140E0,9.837069638E0
1.323844000E0,7.343728638E-1,2.935395813E-1,9.814191284E0,9.846005259E0
1.333876000E0,7.327262878E-1,2.962339783E-1,9.822723541E0,9.854468030E0
1.343907000E0,7.238946533E-1,2.923420715E-1,9.796528015E0,9.827586098E0
1.353938000E0,7.000941467E-1,2.884501648E-1,9.790540466E0,9.819776878E0
1.363970000E0,6.821315002E-1,2.721340942E-1,9.807604980E0,9.835063589E0
1.374001000E0,6.930587769E-1,2.583627319E-1,9.812245331E0,9.840083343E0
1.384033000E0,6.906637573E-1,2.585124207E-1,9.839937744E0,9.867533628E0
1.394064000E0,6.971003723E-1,2.640509033E-1,9.834848328E0,9.863058016E0
1.404096000E0,6.962022400E-1,2.644999695E-1,9.836195526E0,9.864349964E0
1.414127000E0,6.947053528E-1,2.743794250E-1,9.831255798E0,9.859588742E0
1.424159000E0,6.902146912E-1,2.942880249E-1,9.813592529E0,9.842235523E0
1.434190000E0,6.881190491E-1,2.984793091E-1,9.813143463E0,9.841767237E0
1.444221000E0,6.936575317E-1,2.836601257E-1,9.836195526E0,9.864703050E0
1.454253000E0,7.114704895E-1,2.838098145E-1,9.854607239E0,9.884332152E0
1.464284000E0,7.155120850E-1,2.981799316E-1,9.858798523E0,9.889225305E0
1.474316000E0,6.987469482E-1,2.926414490E-1,9.838590546E0,9.867712513E0
1.484347000E0,6.631210327E-1,3.134481812E-1,9.831405487E0,9.858727764E0
1.494379000E0,6.686595154E-1,3.212319946E-1,9.841883698E0,9.869800923E0
1.504410000E0,6.884184265E-1,3.089575195E-1,9.863738251E0,9.892558160E0
1.514441000E0,6.942562866E-1,3.195854187E-1,9.856403503E0,9.885990929E0
1.524473000E0,7.159611511E-1,3.132984924E-1,9.870025177E0,9.900916791E0
1.534504000E0,7.123686218E-1,3.201841736E-1,9.852661285E0,9.883568251E0
1.544536000E0,7.018904114E-1,3.224295044E-1,9.813742218E0,9.844091998E0
1.554567000E0,6.978488159E-1,2.986289978E-1,9.827363892E0,9.856634989E0
1.564599000E0,7.033872986E-1,2.785707092E-1,9.843380585E0,9.872410884E0
1.574630000E0,7.179071045E-1,2.818638611E-1,9.824819183E0,9.855044892E0
1.584662000E0,7.086264038E-1,3.047662354E-1,9.777667236E0,9.808048247E0
1.594693000E0,7.077282715E-1,3.179388428E-1,9.743238831E0,9.774081406E0
1.604724000E0,7.107220459E-1,2.787203979E-1,9.760453033E0,9.790263240E0
1.614756000E0,7.385641479E-1,2.176473999E-1,9.839338989E0,9.869419392E0
1.624787000E0,7.923023987E-1,2.246827698E-1,9.879904633E0,9.914168699E0
1.634819000E0,7.934999084E-1,1.769320679E-1,9.925410004E0,9.958650049E0
1.644850000E0,8.002359009E-1,2.167492676E-1,9.871222687E0,9.905977744E0
1.654882000E0,7.605683899E-1,2.680924988E-1,9.771529999E0,9.804750705E0
1.664913000E0,7.373666382E-1,2.761756897E-1,9.774673462E0,9.806335904E0
1.674944583E0,7.128176880E-1,2.980302429E-1,9.797875214E0,9.828290278E0
1.684975583E0,6.890171814E-1,3.405418396E-1,9.794881439E0,9.824989355E0
1.695006583E0,6.765930176E-1,3.947291565E-1,9.804012451E0,9.835255429E0
1.705038583E0,6.848258972E-1,4.180805969E-1,9.812993774E0,9.845741451E0
1.715069583E0,7.153623962E-1,4.343966675E-1,9.827363892E0,9.862936930E0
1.725101583E0,7.288343811E-1,4.245172119E-1,9.889484711E0,9.925387764E0
1.735132583E0,7.226971436E-1,3.818559265E-1,9.909842377E0,9.943494408E0
1.745164583E0,7.176077271E-1,3.525169373E-1,9.931846619E0,9.963975426E0
1.755195583E0,7.068301392E-1,3.113525391E-1,9.912387085E0,9.942432649E0
1.765226583E0,7.044351196E-1,2.912942505E-1,9.868827667E0,9.898224119E0
1.775258583E0,6.912625122E-1,2.707868958E-1,9.819580078E0,9.847604902E0
1.785289583E0,6.991960144E-1,2.689906311E-1,9.800419922E0,9.829011226E0
1.795321583E0,7.194039917E-1,2.712359619E-1,9.777667236E0,9.807848267E0
1.805352583E0,7.249424744E-1,2.742297363E-1,9.775421906E0,9.806101008E0
1.815384583E0,7.280859375E-1,2.673440552E-1,9.798623657E0,9.829272992E0
1.825415583E0,7.373666382E-1,2.772235107E-1,9.827663269E0,9.859184944E0
1.835447583E0,7.310797119E-1,2.743794250E-1,9.845326538E0,9.876245048E0
1.845478583E0,7.315287781E-1,2.815644836E-1,9.835297394E0,9.866483048E0
1.855509583E0,7.363188171E-1,2.935395813E-1,9.833950195E0,9.865845495E0
1.865541583E0,7.283853149E-1,2.953358459E-1,9.833351440E0,9.864713325E0
1.875572583E0,7.352709961E-1,3.195854187E-1,9.829758911E0,9.862399228E0
1.885604583E0,7.232958984E-1,3.369493103E-1,9.806557159E0,9.838966161E0
1.895635583E0,7.426057434E-1,3.647914124E-1,9.933193817E0,9.967591257E0
1.905667583E0,7.285350037E-1,3.882925415E-1,9.843979340E0,9.878535498E0
1.915698583E0,6.994953918E-1,3.900888062E-1,9.783954163E0,9.816680811E0
1.925730583E0,7.286846924E-1,3.637435913E-1,9.848470001E0,9.882087439E0
1.935761583E0,7.400610352E-1,3.561094666E-1,9.831555176E0,9.865798572E0
1.945792583E0,6.864724731E-1,3.451821899E-1,9.807604980E0,9.837657783E0
1.955824583E0,6.764433289E-1,3.037184143E-1,9.855655060E0,9.883509352E0
1.965855583E0,7.367678833E-1,3.053649902E-1,9.895921326E0,9.928007533E0
1.975887583E0,7.943980408E-1,2.953358459E-1,9.926457825E0,9.962572783E0
1.985918583E0,8.134085083E-1,2.951861572E-1,9.886940002E0,9.924734298E0
1.995950583E0,8.003855896E-1,3.186872864E-1,9.830058289E0,9.867736551E0
2.005981583E0,7.470964050E-1,3.360511780E-1,9.792636108E0,9.826841068E0
2.016012583E0,7.340734863E-1,3.376977539E-1,9.782606964E0,9.815920877E0
2.026044583E0,7.390132141E-1,3.362008667E-1,9.806407471E0,9.839959300E0
2.036075583E0,7.664062500E-1,3.388952637E-1,9.797126770E0,9.832899953E0
2.046107583E0,7.761360168E-1,3.441343689E-1,9.781708832E0,9.818484774E0
2.056138583E0,7.411088562E-1,3.279679871E-1,9.787696381E0,9.821191668E0
2.066170583E0,7.192543030E-1,3.031196594E-1,9.813742218E0,9.844731820E0
2.076201583E0,7.057823181E-1,2.941383362E-1,9.838740234E0,9.868406935E0
2.086233583E0,6.941065979E-1,2.704875183E-1,9.829459534E0,9.857647904E0
2.096264583E0,6.978488159E-1,2.680924988E-1,9.845775604E0,9.874115849E0
2.106295583E0,7.128176880E-1,2.797682190E-1,9.867330780E0,9.896999345E0
2.116327583E0,7.237449646E-1,2.920426941E-1,9.867480469E0,9.898296142E0
2.126358583E0,7.232958984E-1,3.143463135E-1,9.846673737E0,9.878206023E0
2.136390583E0,7.177574158E-1,3.309617615E-1,9.822873230E0,9.854620738E0
2.146421583E0,7.247927856E-1,3.472778320E-1,9.812993774E0,9.845850562E0
2.156453583E0,7.188052368E-1,3.502716064E-1,9.825717316E0,9.858199224E0
2.166484583E0,7.265890503E-1,3.469784546E-1,9.832902374E0,9.865814452E0
2.176516583E0,7.309300232E-1,3.598516846E-1,9.818382568E0,9.852126075E0
2.186547583E0,7.030879211E-1,3.589535522E-1,9.809850311E0,9.841562041E0
2.196578583E0,7.105723572E-1,3.586541748E-1,9.800120544E0,9.832390786E0
2.206610583E0,7.237449646E-1,3.656895447E-1,9.849966888E0,9.883288082E0
2.216641583E0,7.412585449E-1,3.574566650E-1,9.870025177E0,9.904273648E0
2.226673583E0,7.661068726E-1,3.637435913E-1,9.887239380E0,9.923544311E0
2.236704583E0,7.735913086E-1,3.561094666E-1,9.859097900E0,9.895810673E0
2.246736583E0,7.442523193E-1,3.556604004E-1,9.804910583E0,9.839546605E0
2.256767583E0,7.379653931E-1,3.198847961E-1,9.793683929E0,9.826655795E0
2.266798583E0,7.360194397E-1,2.820135498E-1,9.818232880E0,9.849819955E0
2.276830583E0,7.541317749E-1,2.607577515E-1,9.815688171E0,9.848068014E0
2.286861583E0,7.523355103E-1,2.665956116E-1,9.761201477E0,9.793780486E0
2.296893583E0,7.664062500E-1,2.706372070E-1,9.762848053E0,9.796623150E0
2.306924583E0,8.105644226E-1,2.661465454E-1,9.828262024E0,9.865220883E0
2.316956583E0,8.556207275E-1,2.401007080E-1,9.844727783E0,9.884755956E0
2.326987583E0,8.855584717E-1,2.216889954E-1,9.824519806E0,9.866840894E0
2.337019583E0,8.804690552E-1,1.902543640E-1,9.829309845E0,9.870499203E0
2.347050583E0,8.628057861E-1,1.826202393E-1,9.848619690E0,9.888027800E0
2.357081583E0,7.951464844E-1,2.427951050E-1,9.769284668E0,9.804597407E0
2.367113583E0,7.641609192E-1,2.911445618E-1,9.775870972E0,9.810013268E0
2.377144583E0,7.475454712E-1,3.507206726E-1,9.808203735E0,9.842900474E0
2.387176583E0,6.730004883E-1,4.340972900E-1,9.819580078E0,9.852183668E0
2.397207583E0,5.932164001E-1,5.209167480E-1,9.813742218E0,9.845445459E0
2.407239583E0,5.463638306E-1,6.158193970E-1,9.822274475E0,9.856714606E0
2.417270583E0,5.113366699E-1,6.487509155E-1,9.849068756E0,9.883648026E0
2.427302583E0,5.141807556E-1,6.644682312E-1,9.890382843E0,9.926004869E0
2.437333583E0,5.345384216E-1,6.390211487E-1,9.954299927E0,9.989102381E0
2.447364583E0,5.346881104E-1,5.770500183E-1,9.961934052E0,9.992947921E0
2.457396583E0,5.060975647E-1,5.122348022E-1,9.918075256E0,9.944181013E0
2.467427583E0,4.643344116E-1,4.631369019E-1,9.889634399E0,9.911355648E0
2.477459583E0,4.032614136E-1,3.760180664E-1,9.857750702E0,9.873158474E0
2.487490583E0,3.802093506E-1,3.234773254E-1,9.839039612E0,9.851695144E0
2.497522583E0,3.727249146E-1,2.787203979E-1,9.837393036E0,9.848396350E0
2.507553583E0,3.680845642E-1,2.436932373E-1,9.867330780E0,9.877200482E0
2.517584583E0,3.923341370E-1,2.059716797E-1,9.909093933E0,9.918996571E0
2.527616583E0,4.619393921E-1,2.152523804E-1,9.939031677E0,9.952088840E0
2.537647583E0,6.026467896E-1,2.754272461E-1,9.945617981E0,9.967665742E0
2.547679583E0,7.360194397E-1,3.357518005E-1,9.900262299E0,9.933259660E0
2.557710583E0,7.972421265E-1,3.769161987E-1,9.860744476E0,9.900098103E0
2.567742583E0,8.111631775E-1,4.162843323E-1,9.843380585E0,9.885515651E0
2.577773583E0,8.214916992E-1,4.501139832E-1,9.817185059E0,9.861773354E0
2.587805583E0,8.400531006E-1,4.754113770E-1,9.760902100E0,9.808512374E0
2.597836583E0,8.906478882E-1,4.954696655E-1,9.690099335E0,9.743550121E0
2.607867583E0,9.633966064E-1,4.905299377E-1,9.822873230E0,9.882185544E0
2.617899583E0,1.007554779E0,4.644841003E-1,9.806706848E0,9.869265997E0
2.627930583E0,1.022074585E0,4.375401306E-1,9.733059998E0,9.796353135E0
2.637962583E0,1.024768982E0,3.532653809E-1,9.775421906E0,9.835335344E0
2.647993583E0,1.015787659E0,2.887495422E-1,9.756561127E0,9.813546040E0
2.658025583E0,9.964778137E-1,2.130070496E-1,9.818831635E0,9.871564957E0
2.668056875E0,1.020128632E0,1.654060364E-1,9.923164673E0,9.976834102E0
2.678088875E0,1.041234741E0,1.965412903E-1,9.904752960E0,9.961271478E0
2.688119875E0,1.015188904E0,2.471360779E-1,9.868228912E0,9.923387860E0
2.698150875E0,9.731263733E-1,2.888992310E-1,9.808802490E0,9.861188772E0
2.708182875E0,9.030720520E-1,3.493734741E-1,9.772877197E0,9.820729589E0
2.718213875E0,8.526269531E-1,3.915856934E-1,9.719887390E0,9.765066459E0
2.728245875E0,8.128097534E-1,4.065545654E-1,9.703870697E0,9.746335353E0
2.738276875E0,8.235873413E-1,4.044589233E-1,9.788444824E0,9.831354698E0
2.748308875E0,8.566685486E-1,4.287084961E-1,9.813592529E0,9.860236828E0
2.758339875E0,8.503816223E-1,4.492158508E-1,9.793983307E0,9.841090021E0
2.768370875E0,8.165519714E-1,4.623884583E-1,9.800270233E0,9.845093034E0
2.778402875E0,7.792794800E-1,4.484674072E-1,9.823921051E0,9.864979693E0
2.788433875E0,7.732919312E-1,4.113446045E-1,9.826765137E0,9.865723382E0
2.798465875E0,7.367678833E-1,3.796105957E-1,9.820478210E0,9.855390576E0
2.808496875E0,6.900650024E-1,3.585044861E-1,9.817933502E0,9.848681812E0
2.818528875E0,6.559359741E-1,3.252735901E-1,9.826465759E0,9.853704087E0
2.828559875E0,6.393205261E-1,3.260220337E-1,9.828711090E0,9.854876092E0
2.838591875E0,6.448590088E-1,3.365002441E-1,9.848170624E0,9.874995706E0
2.848622875E0,6.509962463E-1,3.478765869E-1,9.867330780E0,9.894899239E0
2.858653875E0,6.554869080E-1,3.619473267E-1,9.883946228E0,9.912268257E0
2.868685875E0,6.575825500E-1,3.688330078E-1,9.896520081E0,9.925198351E0
2.878716875E0,6.605763245E-1,3.646417236E-1,9.885293427E0,9.914048154E0
2.888748875E0,6.352789307E-1,3.790118408E-1,9.834848328E0,9.862630021E0
2.898779875E0,6.233038330E-1,3.784130859E-1,9.814939728E0,9.841988925E0
2.908811875E0,6.255491638E-1,3.689826965E-1,9.842482452E0,9.869241147E0
2.918842875E0,6.535409546E-1,3.631448364E-1,9.871971130E0,9.900242621E0
2.928873875E0,6.676116943E-1,3.775149536E-1,9.858948212E0,9.888735144E0
2.938905875E0,6.786886597E-1,3.894900513E-1,9.848470001E0,9.879508194E0
2.948936875E0,6.722520447E-1,3.960763550E-1,9.795031128E0,9.826058930E0
2.958968875E0,6.637197876E-1,3.860472107E-1,9.782756653E0,9.812842816E0
2.968999875E0,6.909631348E-1,3.562591553E-1,9.844877472E0,9.875523433E0
2.979031875E0,7.214996338E-1,3.391946411E-1,9.896071014E0,9.928133573E0
2.989062875E0,7.616162109E-1,3.601510620E-1,9.860744476E0,9.896668615E0
2.999094875E0,7.658074951E-1,4.191284180E-1,9.787546692E0,9.826403207E0
3.009125875E0,7.845185852E-1,4.535568237E-1,9.813592529E0,9.855342791E0
3.019156875E0,8.093669128E-1,4.198768616E-1,9.832004242E0,9.874192564E0
3.029188875E0,8.159532166E-1,3.736230469E-1,9.819729767E0,9.860652439E0
3.039219875E0,8.461903381E-1,3.556604004E-1,9.789792023E0,9.832729034E0
3.049251875E0,8.560697937E-1,3.180885315E-1,9.841584320E0,9.883866538E0
3.059282875E0,8.306227112E-1,3.210823059E-1,9.764494629E0,9.805018271E0
3.069314875E0,8.071215820E-1,3.408412170E-1,9.742939453E0,9.782253686E0
3.079345875E0,7.830216980E-1,3.365002441E-1,9.793534241E0,9.830547712E0
3.089376875E0,7.807763672E-1,3.579057312E-1,9.865534515E0,9.902852090E0
3.099408875E0,7.711962891E-1,4.230203247E-1,9.859846344E0,9.899002972E0
3.109439875E0,7.575746155E-1,4.628375244E-1,9.841284943E0,9.881246237E0
3.119471875E0,7.607180786E-1,4.897814941E-1,9.811496887E0,9.853123823E0
3.129502875E0,7.626640320E-1,4.912783813E-1,9.818083191E0,9.859907120E0
3.139534875E0,7.358697510E-1,4.622387695E-1,9.843829651E0,9.882112687E0
3.149565875E0,7.188052368E-1,4.273612976E-1,9.864935760E0,9.900316975E0
3.159597875E0,7.135661316E-1,4.043092346E-1,9.860744476E0,9.894792782E0
3.169628875E0,7.313790894E-1,3.847000122E-1,9.856553192E0,9.891134935E0
3.179659875E0,7.508386230E-1,3.638932800E-1,9.842931519E0,9.878232526E0
3.189691875E0,7.792794800E-1,3.472778320E-1,9.828860779E0,9.865818902E0
3.199722875E0,7.869136047E-1,3.297642517E-1,9.818981323E0,9.855981519E0
3.209754875E0,7.852670288E-1,3.185375977E-1,9.802964630E0,9.839523670E0
3.219785875E0,7.991880798E-1,3.010240173E-1,9.805060272E0,9.842180855E0
3.229817875E0,8.015830994E-1,3.074606323E-1,9.833351440E0,9.870758231E0
3.239848875E0,7.917036438E-1,3.270698547E-1,9.841734009E0,9.878942132E0
3.249879875E0,7.635621643E-1,3.540138245E-1,9.861792297E0,9.897641147E0
3.259911875E0,7.226971436E-1,3.824546814E-1,9.854307861E0,9.888172034E0
3.269942875E0,6.945556641E-1,4.197271729E-1,9.849966888E0,9.883340841E0
3.279974875E0,6.617738342E-1,4.291575623E-1,9.862690430E0,9.894179265E0
3.290005875E0,6.541397095E-1,4.348457336E-1,9.876761169E0,9.907946345E0
3.300037875E0,6.442602539E-1,4.459226990E-1,9.854008484E0,9.885110092E0
3.310068875E0,5.875282288E-1,4.752616882E-1,9.774972839E0,9.804139794E0
3.320100875E0,5.906716919E-1,4.791535950E-1,9.908046112E0,9.937195730E0
3.330131875E0,5.810916138E-1,4.791535950E-1,9.854008484E0,9.882749558E0
3.340162875E0,6.005511475E-1,4.650828552E-1,9.773326263E0,9.802799090E0
3.350194875E0,6.887178040E-1,4.324507141E-1,9.780511322E0,9.814262456E0
3.360225875E0,7.083270264E-1,4.053570557E-1,9.782157898E0,9.816142555E0
3.370257875E0,7.432044983E-1,3.438349915E-1,9.910291443E0,9.944066166E0
3.380288875E0,8.306227112E-1,3.248245239E-1,9.950408020E0,9.990298535E0
3.390320875E0,8.677455139E-1,3.400927734E-1,9.928104401E0,9.971755230E0
3.400351875E0,8.888516235E-1,3.561094666E-1,9.897867279E0,9.944076017E0
3.410383875E0,9.000782776E-1,3.799099731E-1,9.855355682E0,9.903661349E0
3.420414875E0,8.719367981E-1,4.020639038E-1,9.773625641E0,9.820676521E0
3.430445875E0,8.190966797E-1,4.014651489E-1,9.716743927E0,9.759467515E0
3.440477875E0,7.884104919E-1,3.966751099E-1,9.745633850E0,9.785515898E0
3.450508875E0,7.842192078E-1,3.805087280E-1,9.803713074E0,9.842386737E0
3.460540875E0,8.149053955E-1,3.818559265E-1,9.822424164E0,9.863564326E0
3.470571875E0,7.932005310E-1,3.716770935E-1,9.776320038E0,9.815484931E0
3.480603875E0,7.587721252E-1,3.760180664E-1,9.813143463E0,9.849614680E0
3.490634875E0,7.447013855E-1,3.537144470E-1,9.832303619E0,9.866807413E0
3.500665875E0,7.201524353E-1,3.586541748E-1,9.833201752E0,9.866058435E0
3.510697875E0,7.264393616E-1,3.490740967E-1,9.816735992E0,9.849765094E0
3.520728875E0,7.203021240E-1,3.592529297E-1,9.818083191E0,9.851023062E0
3.530760875E0,7.321275330E-1,3.632945251E-1,9.822573853E0,9.856518185E0
3.540791875E0,7.343728638E-1,3.564088440E-1,9.824220428E0,9.858074751E0
3.550823875E0,7.470964050E-1,3.668870544E-1,9.810149689E0,9.845394663E0
3.560854875E0,7.391629028E-1,3.805087280E-1,9.805509338E0,9.840689106E0
3.570885875E0,7.131170654E-1,3.667373657E-1,9.832453308E0,9.865098596E0
3.580917875E0,7.240443420E-1,3.598516846E-1,9.832902374E0,9.866088513E0
3.590948875E0,7.176077271E-1,3.510200500E-1,9.839338989E0,9.871715538E0
3.600980875E0,7.231462097E-1,3.653901672E-1,9.852212219E0,9.885470956E0
3.611011875E0,7.265890503E-1,3.977229309E-1,9.843530273E0,9.878319868E0
3.621043875E0,7.212002563E-1,4.180805969E-1,9.865534515E0,9.900691515E0
3.631074875E0,7.229965210E-1,4.099974060E-1,9.866732025E0,9.901677772E0
3.641106875E0,7.150630188E-1,4.249662781E-1,9.871971130E0,9.906953389E0
3.651137875E0,7.217990112E-1,4.141886902E-1,9.859696655E0,9.894754379E0
3.661168875E0,7.192543030E-1,3.873944092E-1,9.847422180E0,9.881251175E0
3.671200208E0,6.956034851E-1,3.632945251E-1,9.834399261E0,9.865660442E0
3.681231208E0,7.035369873E-1,3.462300110E-1,9.840985565E0,9.872174857E0
3.691263208E0,7.135661316E-1,3.423381042E-1,9.823471985E0,9.855301814E0
3.701294208E0,7.530839539E-1,3.378474426E-1,9.808802490E0,9.843469034E0
3.711326208E0,7.789801025E-1,3.294648743E-1,9.803413696E0,9.839831157E0
3.721357208E0,8.081694031E-1,3.391946411E-1,9.800569611E0,9.839682692E0
3.731389208E0,8.033793640E-1,3.601510620E-1,9.778265991E0,9.817821193E0
3.741420208E0,7.758366394E-1,3.643423462E-1,9.786199493E0,9.823663693E0
3.751451208E0,7.803273010E-1,3.453318787E-1,9.813442841E0,9.850473348E0
3.761483208E0,7.801776123E-1,3.671864319E-1,9.836644592E0,9.874364780E0
3.771514208E0,7.732919312E-1,3.984713745E-1,9.831106110E0,9.869519096E0
3.781546208E0,7.622149658E-1,4.174818420E-1,9.834998016E0,9.873320046E0
3.791577208E0,7.484436035E-1,4.195774841E-1,9.808054047E0,9.845513561E0
3.801609208E0,7.303312683E-1,4.040098572E-1,9.807006226E0,9.842457967E0
3.811640208E0,7.330256653E-1,3.805087280E-1,9.865534515E0,9.900044686E0
3.821671208E0,7.209008789E-1,3.890409851E-1,9.904154205E0,9.937973711E0
3.831703208E0,7.232958984E-1,4.210743713E-1,9.852960663E0,9.888442466E0
3.841734208E0,6.851252747E-1,4.215234375E-1,9.797875214E0,9.830841131E0
3.851766208E0,6.887178040E-1,3.809577942E-1,9.839638367E0,9.871066013E0
3.861797208E0,7.397616577E-1,3.132984924E-1,9.861792297E0,9.894460600E0
3.871829208E0,7.568261719E-1,2.993774414E-1,9.802665253E0,9.836394602E0
3.881860208E0,8.024812317E-1,2.459385681E-1,9.848020935E0,9.883722894E0
3.891892208E0,8.325686646E-1,2.474354553E-1,9.846823425E0,9.885055713E0
3.901923208E0,8.032296753E-1,2.920426941E-1,9.745633850E0,9.783038689E0
3.911954208E0,7.653584290E-1,3.279679871E-1,9.757908325E0,9.793370789E0
3.921986208E0,7.219487000E-1,3.463796997E-1,9.807155914E0,9.839791459E0
3.932017208E0,7.141648865E-1,4.192781067E-1,9.802216187E0,9.837137174E0
3.942049208E0,7.192543030E-1,4.655319214E-1,9.797875214E0,9.835263363E0
3.952080208E0,7.318281555E-1,4.998106384E-1,9.806557159E0,9.846519509E0
3.962112208E0,7.547305298E-1,5.146298218E-1,9.844278717E0,9.886570967E0
3.972143208E0,7.714956665E-1,4.737648010E-1,9.886640625E0,9.928006925E0
3.982174208E0,7.698490906E-1,4.414320374E-1,9.914033661E0,9.953672352E0
3.992206208E0,7.400610352E-1,4.038601685E-1,9.907447357E0,9.943254322E0
4.002237208E0,7.316784668E-1,3.582051086E-1,9.888736267E0,9.922236101E0
4.012269208E0,7.448510742E-1,3.275189209E-1,9.873318329E0,9.906789924E0
4.022300208E0,7.445516968E-1,3.194357300E-1,9.833052063E0,9.866372651E0
4.032332208E0,7.707472229E-1,3.126997375E-1,9.814490662E0,9.849673058E0
4.042363208E0,7.397616577E-1,3.216810608E-1,9.795629883E0,9.828788878E0
4.052395208E0,7.460485840E-1,3.354524231E-1,9.783505096E0,9.817641712E0
4.062426208E0,7.607180786E-1,3.451821899E-1,9.806856537E0,9.842371557E0
4.072457208E0,7.753875732E-1,3.540138245E-1,9.848470001E0,9.885287707E0
4.082489208E0,7.937992859E-1,3.529660034E-1,9.820927277E0,9.859275576E0
4.092520208E0,7.795788574E-1,3.607498169E-1,9.815089417E0,9.852606959E0
4.102552208E0,7.620652771E-1,3.585044861E-1,9.810748444E0,9.846829641E0
4.112583208E0,7.589218140E-1,3.731739807E-1,9.828112335E0,9.864431723E0
4.122615208E0,7.631130981E-1,3.764671326E-1,9.836045837E0,9.872784147E0
4.132646208E0,7.451504517E-1,4.076023865E-1,9.820029144E0,9.856691194E0
4.142677208E0,7.241940308E-1,4.303550720E-1,9.726473694E0,9.762886510E0
4.152709208E0,7.086264038E-1,4.296066284E-1,9.869576111E0,9.904304410E0
4.162740208E0,7.454498291E-1,4.349954224E-1,9.861343231E0,9.899040700E0
4.172772208E0,7.738906860E-1,4.569996643E-1,9.767638092E0,9.808899499E0
4.182803208E0,7.926017761E-1,4.209246826E-1,9.816286926E0,9.857224974E0
4.192835208E0,7.664062500E-1,4.005670166E-1,9.759405212E0,9.797643726E0
4.202866208E0,7.388635254E-1,3.438349915E-1,9.814640350E0,9.848416473E0
4.212897208E0,7.861651611E-1,2.947370911E-1,9.921967163E0,9.957427278E0
4.222929208E0,8.367599487E-1,3.152444458E-1,9.924960938E0,9.965159100E0
4.232960208E0,8.461903381E-1,3.357518005E-1,9.914333038E0,9.956041731E0
4.242992208E0,8.297245789E-1,3.757186890E-1,9.884694672E0,9.926570211E0
4.253023208E0,7.979905701E-1,3.926335144E-1,9.821675720E0,9.861859053E0
4.263055208E0,7.322772217E-1,4.141886902E-1,9.752369843E0,9.788590284E0
4.273086208E0,6.951544189E-1,4.120930481E-1,9.763446808E0,9.796833872E0
4.283118208E0,6.953041077E-1,3.942800903E-1,9.786349182E0,9.818937565E0
4.293149208E0,7.490423584E-1,3.640429688E-1,9.836345215E0,9.871538833E0
4.303180208E0,7.547305298E-1,3.625460815E-1,9.811197510E0,9.846860129E0
4.313212208E0,7.454498291E-1,3.802093506E-1,9.812245331E0,9.847863374E0
4.323243208E0,7.173083496E-1,3.498225403E-1,9.848170624E0,9.880454024E0
4.333275208E0,7.252418518E-1,3.418890381E-1,9.859996033E0,9.892541919E0
4.343306208E0,7.219487000E-1,3.366499329E-1,9.819729767E0,9.851986388E0
4.353338208E0,6.973997498E-1,3.344046021E-1,9.803264008E0,9.833726560E0
4.363369208E0,6.824308777E-1,3.323089600E-1,9.785900116E0,9.815293283E0
4.373400208E0,6.984475708E-1,3.209326172E-1,9.814340973E0,9.844395131E0
4.383432208E0,7.337741089E-1,3.338058472E-1,9.842931519E0,9.875887386E0
4.393463208E0,7.571255493E-1,3.629951477E-1,9.843230896E0,9.878977632E0
4.403495208E0,7.619155884E-1,3.501219177E-1,9.850116577E0,9.885742122E0
4.413526208E0,7.719447327E-1,3.700305176E-1,9.856253815E0,9.893359415E0
4.423558208E0,7.550299072E-1,3.936813354E-1,9.853110352E0,9.889835123E0
4.433589208E0,7.357200623E-1,3.855981445E-1,9.842781830E0,9.877769186E0
4.443621208E0,7.240443420E-1,3.930825806E-1,9.821376343E0,9.855870707E0
4.453652208E0,7.291337585E-1,3.791615295E-1,9.828411713E0,9.862711407E0
4.463683208E0,7.424560547E-1,3.933819580E-1,9.802066498E0,9.838012908E0
4.473715208E0,7.331753540E-1,3.809577942E-1,9.807455292E0,9.842197633E0
4.483746208E0,7.373666382E-1,3.851490784E-1,9.824669495E0,9.859826573E0
4.493778208E0,7.381150818E-1,3.803590393E-1,9.815688171E0,9.850747238E0
4.503809208E0,7.499404907E-1,3.538641357E-1,9.821526031E0,9.856470167E0
4.513841208E0,7.607180786E-1,3.531156921E-1,9.842781830E0,9.878448099E0
4.523872208E0,7.523355103E-1,3.598516846E-1,9.838440857E0,9.873723738E0
4.533903208E0,7.611671448E-1,3.531156921E-1,9.825567627E0,9.861330808E0
4.543935208E0,7.453001404E-1,3.604504395E-1,9.816436615E0,9.851285431E0
4.553966208E0,7.408094788E-1,3.559597778E-1,9.825717316E0,9.860031786E0
4.563998208E0,7.625143433E-1,3.492237854E-1,9.830806732E0,9.866516426E0
4.574029208E0,7.429051208E-1,3.658392334E-1,9.807455292E0,9.842353665E0
4.584061208E0,7.271878052E-1,3.623963928E-1,9.793534241E0,9.827178953E0
4.594092208E0,7.179071045E-1,3.631448364E-1,9.830207977E0,9.863075264E0
4.604124208E0,7.214996338E-1,3.809577942E-1,9.842033386E0,9.875794233E0
4.614155208E0,7.192543030E-1,3.793112183E-1,9.862690430E0,9.896154115E0
4.624186208E0,6.924600220E-1,4.008663940E-1,9.846224670E0,9.878680833E0
4.634218208E0,6.724017334E-1,3.858975220E-1,9.806257782E0,9.836855833E0
4.644249208E0,6.559359741E-1,3.835025024E-1,9.807006226E0,9.836396560E0
4.654281208E0,6.674620056E-1,3.683839417E-1,9.871821442E0,9.901215624E0
4.664312208E0,6.881190491E-1,3.583547974E-1,9.890981598E0,9.921362959E0
4.674344333E0,7.045848083E-1,3.941304016E-1,9.830806732E0,9.863900827E0
4.684375333E0,6.668632507E-1,4.031117249E-1,9.748328247E0,9.779422747E0
4.694406333E0,6.752458191E-1,4.013154602E-1,9.824819183E0,9.856169794E0
4.704438333E0,7.340734863E-1,3.441343689E-1,9.902807007E0,9.935938756E0
4.714469333E0,7.855664063E-1,3.564088440E-1,9.884395294E0,9.921966145E0
4.724501333E0,7.655081177E-1,3.745211792E-1,9.798623657E0,9.835613574E0
4.734532333E0,7.316784668E-1,3.459306335E-1,9.801318054E0,9.834676252E0
4.744564333E0,7.226971436E-1,3.385958862E-1,9.788594513E0,9.821075342E0
4.754595333E0,7.541317749E-1,3.134481812E-1,9.822274475E0,9.856167630E0
4.764626333E0,7.940986633E-1,3.285667419E-1,9.853559418E0,9.890964664E0
4.774658333E0,7.623646545E-1,3.544628906E-1,9.843979340E0,9.879816448E0
4.784689333E0,7.137158203E-1,4.031117249E-1,9.820178833E0,9.854329082E0
4.794721333E0,6.929090881E-1,4.613406372E-1,9.805659027E0,9.840930197E0
4.804752333E0,7.232958984E-1,4.911286926E-1,9.820627899E0,9.859467363E0
4.814784333E0,7.394622803E-1,5.035528564E-1,9.839039612E0,9.879629063E0
4.824815333E0,7.327262878E-1,4.725672913E-1,9.870474243E0,9.908908590E0
4.834847333E0,7.173083496E-1,4.547543335E-1,9.892029419E0,9.928422775E0
4.844878333E0,7.150630188E-1,4.249662781E-1,9.903555450E0,9.938426536E0
4.854909333E0,7.170089722E-1,3.963757324E-1,9.882898407E0,9.916798703E0
4.864941333E0,7.255412292E-1,3.848497009E-1,9.846973114E0,9.881163842E0
4.874972333E0,7.123686218E-1,3.513194275E-1,9.815837860E0,9.847921978E0
4.885004333E0,7.098239136E-1,3.737727356E-1,9.789193268E0,9.822009004E0
4.895035333E0,7.264393616E-1,3.685336304E-1,9.785750427E0,9.819594829E0
4.905067333E0,7.336244202E-1,3.787124634E-1,9.783355408E0,9.818129708E0
4.915098333E0,7.179071045E-1,3.649411011E-1,9.797575836E0,9.830618744E0
4.925130333E0,7.176077271E-1,3.598516846E-1,9.843081207E0,9.875763350E0
4.935161333E0,7.147636414E-1,3.526666260E-1,9.839788055E0,9.872015488E0
4.945192333E0,7.170089722E-1,3.504212952E-1,9.853260040E0,9.885526307E0
4.955224333E0,7.071295166E-1,3.676354980E-1,9.862690430E0,9.894839591E0
4.965255333E0,7.062313843E-1,3.835025024E-1,9.861792297E0,9.894482516E0
4.975287333E0,7.143145752E-1,4.170327759E-1,9.873318329E0,9.907904747E0
4.985318333E0,7.216493225E-1,4.343966675E-1,9.850715332E0,9.886661255E0
4.995350333E0,7.008425903E-1,4.514611816E-1,9.774374084E0,9.809861685E0
5.005381333E0,6.950047302E-1,4.728666687E-1,9.832303619E0,9.868172522E0
5.015412333E0,7.050338745E-1,4.812492371E-1,9.882898407E0,9.919695283E0
5.025444333E0,7.026388550E-1,4.945715332E-1,9.746981049E0,9.784781138E0
5.035475333E0,7.026388550E-1,4.776567078E-1,9.752519531E0,9.789458335E0
5.045507333E0,7.705975342E-1,4.061054993E-1,9.844278717E0,9.882740799E0
5.055538333E0,7.747888184E-1,3.695814514E-1,9.881850586E0,9.919065438E0
5.065570333E0,7.605683899E-1,3.444337463E-1,9.896370392E0,9.931527869E0
5.075601333E0,7.280859375E-1,3.357518005E-1,9.889035645E0,9.921484989E0
5.085632333E0,7.363188171E-1,3.529660034E-1,9.887239380E0,9.920899806E0
5.095664333E0,7.638615417E-1,3.728746033E-1,9.858948212E0,9.895523218E0
5.105695333E0,7.746391296E-1,4.049079895E-1,9.807604980E0,9.846478138E0
5.115727333E0,7.438032532E-1,4.420307922E-1,9.773625641E0,9.811849605E0
5.125758333E0,7.294331360E-1,4.426295471E-1,9.790540466E0,9.827648561E0
5.135790333E0,7.300318909E-1,4.234693909E-1,9.842781830E0,9.878898068E0
5.145821333E0,7.427554321E-1,4.197271729E-1,9.850415955E0,9.887292400E0
5.155853333E0,7.544311523E-1,4.197271729E-1,9.844129028E0,9.881913458E0
5.165884333E0,7.194039917E-1,4.028123474E-1,9.825268250E0,9.859802030E0
5.175915333E0,7.056326294E-1,3.903881836E-1,9.834399261E0,9.867407419E0
5.185947333E0,6.939569092E-1,3.912863159E-1,9.837093658E0,9.869300523E0
5.195978333E0,6.987469482E-1,3.773652649E-1,9.805659027E0,9.837764014E0
5.206010333E0,6.670129395E-1,3.860472107E-1,9.782906342E0,9.813215334E0
5.216041333E0,6.700067139E-1,3.838018799E-1,9.796677704E0,9.827059932E0
5.226073333E0,7.077282715E-1,3.812571716E-1,9.845625916E0,9.878389849E0
5.236104333E0,7.223977661E-1,4.019142151E-1,9.848320312E0,9.882955355E0
5.246135333E0,7.315287781E-1,4.065545654E-1,9.851014709E0,9.886501493E0
5.256167333E0,7.188052368E-1,4.056564331E-1,9.843829651E0,9.878371339E0
5.266198333E0,6.990463257E-1,4.122427368E-1,9.831106110E0,9.864545462E0
5.276230333E0,7.023394775E-1,4.016148376E-1,9.827812958E0,9.861058906E0
5.286261333E0,6.878196716E-1,3.848497009E-1,9.838740234E0,9.870259094E0
5.296293333E0,7.074288940E-1,4.014651489E-1,9.865684204E0,9.899159294E0
5.306324333E0,7.162605286E-1,4.040098572E-1,9.845176849E0,9.879461539E0
5.316356333E0,7.062313843E-1,4.138893127E-1,9.850266266E0,9.884220386E0
5.326387333E0,7.240443420E-1,4.073030090E-1,9.855355682E0,9.890306951E0
5.336418333E0,7.241940308E-1,4.225712585E-1,9.832303619E0,9.867989558E0
5.346450333E0,7.276368713E-1,4.197271729E-1,9.818083191E0,9.853952702E0
5.356481333E0,7.226971436E-1,4.188290405E-1,9.820178833E0,9.855639058E0
5.366513333E0,7.265890503E-1,4.143383789E-1,9.814939728E0,9.850515205E0
5.376544333E0,7.238946533E-1,4.092489624E-1,9.819280701E0,9.854429545E0
5.386576333E0,7.297325134E-1,4.014651489E-1,9.822723541E0,9.857970459E0
5.396607333E0,7.300318909E-1,3.987707520E-1,9.842482452E0,9.877571842E0
5.406638333E0,7.424560547E-1,3.966751099E-1,9.831704865E0,9.867675141E0
5.416670333E0,7.331753540E-1,4.031117249E-1,9.825867004E0,9.861425229E0
5.426701333E0,7.313790894E-1,4.129911804E-1,9.840536499E0,9.876316908E0
5.436733333E0,7.388635254E-1,4.073030090E-1,9.856702881E0,9.892745157E0
5.446764333E0,7.285350037E-1,3.974235535E-1,9.851613464E0,9.886505782E0
5.456796333E0,7.146139526E-1,4.026626587E-1,9.840237122E0,9.874364634E0
5.466827333E0,6.891668701E-1,3.966751099E-1,9.809850311E0,9.842025465E0
5.476859333E0,6.902146912E-1,3.887416077E-1,9.829758911E0,9.861626469E0
5.486890333E0,7.044351196E-1,4.005670166E-1,9.873917084E0,9.907114683E0
5.496921333E0,7.117698669E-1,4.305047607E-1,9.867630157E0,9.902629732E0
5.506953333E0,7.057823181E-1,4.426295471E-1,9.829459534E0,9.864700924E0
5.516984333E0,6.903643799E-1,4.293072510E-1,9.792336731E0,9.826024951E0
5.527016333E0,6.659651184E-1,4.149371338E-1,9.814640350E0,9.845955899E0
5.537047333E0,6.764433289E-1,3.993695068E-1,9.856553192E0,9.887806249E0
5.547079333E0,7.003935242E-1,3.962260437E-1,9.878108368E0,9.910830999E0
5.557110333E0,6.851252747E-1,4.219725037E-1,9.784852295E0,9.817881231E0
5.567141333E0,6.521937561E-1,4.293072510E-1,9.766141205E0,9.797304499E0
5.577173333E0,6.924600220E-1,3.766168213E-1,9.895472260E0,9.926817836E0
5.587204333E0,7.565267944E-1,3.626957703E-1,9.883946228E0,9.919489606E0
5.597236333E0,7.587721252E-1,3.821553040E-1,9.881850586E0,9.918303727E0
5.607267333E0,7.479945374E-1,3.671864319E-1,9.832303619E0,9.867548640E0
5.617299333E0,6.968009949E-1,3.546125793E-1,9.796528015E0,9.827677389E0
5.627330333E0,7.090754700E-1,3.180885315E-1,9.825867004E0,9.856552680E0
5.637361333E0,7.583230591E-1,3.040177917E-1,9.867480469E0,9.901244946E0
5.647393333E0,7.875123596E-1,3.348536682E-1,9.890682220E0,9.927633025E0
5.657424333E0,7.491920471E-1,3.914360046E-1,9.826465759E0,9.862755203E0
5.667456333E0,6.902146912E-1,4.656816101E-1,9.761949921E0,9.797393630E0
5.677487458E0,6.789880371E-1,5.120851135E-1,9.766141205E0,9.803100017E0
5.687519458E0,7.029382324E-1,5.275030518E-1,9.776320038E0,9.815743228E0
5.697550458E0,7.153623962E-1,5.170248413E-1,9.831854553E0,9.871394126E0
5.707582458E0,7.206015015E-1,5.014572144E-1,9.864786072E0,9.903773528E0
5.717613458E0,7.176077271E-1,4.659809875E-1,9.886940002E0,9.923894485E0
5.727644458E0,7.072792053E-1,4.263134766E-1,9.904303894E0,9.938673084E0
5.737676458E0,6.957531738E-1,4.028123474E-1,9.881551208E0,9.914201156E0
5.747707458E0,7.029382324E-1,3.999682617E-1,9.855804749E0,9.888932400E0
5.757739458E0,7.050338745E-1,3.960763550E-1,9.814939728E0,9.848197353E0
5.767770458E0,7.110214233E-1,3.971241760E-1,9.783056030E0,9.816895862E0
5.777802458E0,7.065307617E-1,4.038601685E-1,9.762398987E0,9.796260650E0
5.787833458E0,7.035369873E-1,4.020639038E-1,9.796078949E0,9.829536228E0
5.797864458E0,7.135661316E-1,4.064048767E-1,9.822573853E0,9.856840195E0
5.807896458E0,7.235952759E-1,3.983216858E-1,9.831555176E0,9.866191133E0
5.817927458E0,6.991960144E-1,3.890409851E-1,9.852511597E0,9.884948797E0
5.827959458E0,6.903643799E-1,3.858975220E-1,9.861343231E0,9.893008147E0
5.837990458E0,6.956034851E-1,3.794609070E-1,9.859397278E0,9.891186454E0
5.848022458E0,7.180567932E-1,4.098477173E-1,9.839937744E0,9.874611664E0
5.858053458E0,7.158114624E-1,4.215234375E-1,9.853709106E0,9.888662762E0
5.868085458E0,7.244934082E-1,4.408332825E-1,9.849368134E0,9.885811920E0
5.878116458E0,7.131170654E-1,4.646337891E-1,9.782008209E0,9.818966601E0
5.888147458E0,6.893165588E-1,4.730163574E-1,9.872569885E0,9.907902802E0
5.898179458E0,6.780899048E-1,4.846920776E-1,9.834698639E0,9.869955909E0
5.908210458E0,6.641688538E-1,4.987628174E-1,9.748777313E0,9.784096469E0
5.918242458E0,6.996450806E-1,4.552033997E-1,9.799821167E0,9.835304178E0
5.928273458E0,7.536827087E-1,3.944297791E-1,9.872869263E0,9.909448015E0
5.938305458E0,7.747888184E-1,3.719764709E-1,9.882299652E0,9.919602342E0
5.948336458E0,7.384144592E-1,3.382965088E-1,9.877659302E0,9.910996606E0
5.958367458E0,7.348219299E-1,3.477268982E-1,9.872869263E0,9.906282085E0
5.968399458E0,7.563771057E-1,3.721261597E-1,9.851463776E0,9.887462906E0
5.978430458E0,7.759863281E-1,4.141886902E-1,9.837842102E0,9.877086832E0
5.988462458E0,7.625143433E-1,4.397854614E-1,9.795929260E0,9.835398795E0
5.998493458E0,7.120692444E-1,4.622387695E-1,9.793833618E0,9.830558694E0
6.008525458E0,7.068301392E-1,4.510121155E-1,9.819729767E0,9.855461099E0
6.018556458E0,7.243437195E-1,4.397854614E-1,9.856104126E0,9.892465497E0
6.028587458E0,7.388635254E-1,4.224215698E-1,9.867181091E0,9.903818556E0
6.038619458E0,7.195536804E-1,4.409829712E-1,9.837991791E0,9.874123047E0
6.048650458E0,6.900650024E-1,4.409829712E-1,9.830207977E0,9.864260974E0
6.058682458E0,6.735992432E-1,4.218228149E-1,9.830507355E0,9.862583094E0
6.068713458E0,6.828799438E-1,4.299060059E-1,9.817185059E0,9.850292720E0
6.078745458E0,6.680607605E-1,4.213737488E-1,9.801916809E0,9.833688736E0
6.088776458E0,6.732998657E-1,3.990701294E-1,9.781259766E0,9.812524256E0
6.098808458E0,6.563850403E-1,3.839515686E-1,9.823921051E0,9.853308325E0
6.108839458E0,6.810836792E-1,3.800596619E-1,9.843979340E0,9.874829090E0
6.118870458E0,7.131170654E-1,3.918850708E-1,9.874366150E0,9.907836127E0
6.128902458E0,7.355703735E-1,3.917353821E-1,9.864187317E0,9.899328856E0
6.138933458E0,7.246430969E-1,4.056564331E-1,9.849068756E0,9.884018420E0
6.148965458E0,7.108717346E-1,4.216731262E-1,9.823022919E0,9.857734329E0
6.158996458E0,6.885681152E-1,4.155358887E-1,9.817634125E0,9.850519577E0
6.169028458E0,6.924600220E-1,4.090992737E-1,9.814640350E0,9.847539200E0
6.179059458E0,7.012916565E-1,4.046086121E-1,9.815538483E0,9.848873734E0
6.189090458E0,7.072792053E-1,4.159849548E-1,9.824370117E0,9.858576751E0
6.199122458E0,7.167095947E-1,4.212240601E-1,9.842332764E0,9.877379034E0
6.209153458E0,7.289840698E-1,4.186793518E-1,9.854158173E0,9.889951641E0
6.219185458E0,7.324269104E-1,4.134402466E-1,9.839039612E0,9.874921898E0
6.229216458E0,7.342231750E-1,4.117936707E-1,9.846374359E0,9.882294557E0
6.239248458E0,7.228468323E-1,4.113446045E-1,9.844129028E0,9.879199778E0
6.249279458E0,7.140151978E-1,4.016148376E-1,9.825567627E0,9.859659800E0
6.259311458E0,7.102729797E-1,4.044589233E-1,9.839788055E0,9.873677314E0
6.269342458E0,7.327262878E-1,4.171824646E-1,9.834099884E0,9.870179813E0
6.279373458E0,7.095245361E-1,4.098477173E-1,9.820927277E0,9.855050116E0
6.289405458E0,7.315287781E-1,4.146377563E-1,9.825268250E0,9.861184259E0
6.299436458E0,7.156617737E-1,4.234693909E-1,9.826465759E0,9.861588483E0
6.309468458E0,7.243437195E-1,4.158352661E-1,9.846524048E0,9.881883860E0
6.319499458E0,7.102729797E-1,4.266128540E-1,9.861043854E0,9.895790626E0
6.329531458E0,6.965016174E-1,4.125421143E-1,9.847871246E0,9.881086660E0
6.339562458E0,6.909631348E-1,4.195774841E-1,9.803862762E0,9.837133748E0
6.349593458E0,6.698570251E-1,4.093986511E-1,9.815837860E0,9.847181759E0
6.359625458E0,6.872209167E-1,4.077520752E-1,9.859097900E0,9.891427893E0
6.369656458E0,7.134164429E-1,4.096980286E-1,9.880802765E0,9.914992626E0
6.379688458E0,7.107220459E-1,4.221221924E-1,9.857601013E0,9.892199488E0
6.389719458E0,7.095245361E-1,4.499642944E-1,9.803264008E0,9.839201092E0
6.399751458E0,6.779402161E-1,4.501139832E-1,9.762398987E0,9.796256403E0
6.409782458E0,6.511459351E-1,4.337979126E-1,9.788295135E0,9.819515941E0
6.419814458E0,6.691085815E-1,4.064048767E-1,9.856403503E0,9.887444626E0
6.429845458E0,6.915618896E-1,3.975732422E-1,9.841434631E0,9.873710444E0
6.439876458E0,6.777905273E-1,4.324507141E-1,9.750573578E0,9.783664892E0
6.449908458E0,6.676116943E-1,4.101470947E-1,9.814340973E0,9.845568279E0
6.459939458E0,7.066804504E-1,3.845503235E-1,9.887688446E0,9.920365871E0
6.469971458E0,7.423063660E-1,3.847000122E-1,9.882748718E0,9.918050971E0
6.480002458E0,7.497908020E-1,3.841012573E-1,9.874964905E0,9.910835075E0
6.490034458E0,7.247927856E-1,3.706292725E-1,9.821376343E0,9.855055754E0
6.500065458E0,7.092251587E-1,3.608995056E-1,9.817634125E0,9.849831907E0
6.510096458E0,7.438032532E-1,3.281176758E-1,9.830956421E0,9.864512590E0
6.520128458E0,7.680528259E-1,3.170407104E-1,9.879455566E0,9.914336198E0
6.530159458E0,7.735913086E-1,3.646417236E-1,9.876461792E0,9.913420430E0
6.540191458E0,7.171586609E-1,4.252656555E-1,9.805808716E0,9.841191594E0
6.550222458E0,6.941065979E-1,4.915777588E-1,9.753417664E0,9.790433534E0
6.560254458E0,6.806346130E-1,5.260061646E-1,9.775870972E0,9.813643524E0
6.570285458E0,6.906637573E-1,5.307962036E-1,9.820178833E0,9.858735890E0
6.580316458E0,7.213499451E-1,5.150788879E-1,9.852511597E0,9.892301894E0
6.590348458E0,7.201524353E-1,5.011578369E-1,9.864486694E0,9.903427510E0
6.600379458E0,7.059320068E-1,4.625381470E-1,9.892179108E0,9.928116087E0
6.610411458E0,6.951544189E-1,4.472698975E-1,9.892179108E0,9.926655908E0
6.620442458E0,7.101232910E-1,4.312532043E-1,9.858798523E0,9.893743616E0
6.630474458E0,7.092251587E-1,4.165837097E-1,9.821526031E0,9.855907665E0
6.640505458E0,6.997947693E-1,4.089495850E-1,9.797426147E0,9.830895768E0
6.650537458E0,6.863227844E-1,3.966751099E-1,9.774673462E0,9.806764573E0
6.660568458E0,6.984475708E-1,3.870950317E-1,9.787397003E0,9.819919127E0
6.670599500E0,7.152127075E-1,3.701802063E-1,9.804611206E0,9.837629974E0
6.680631500E0,7.234455872E-1,3.712280273E-1,9.835746460E0,9.869300491E0
6.690662500E0,7.158114624E-1,3.823049927E-1,9.847422180E0,9.880802941E0
6.700694500E0,7.207511902E-1,3.924838257E-1,9.855505371E0,9.889616370E0
6.710725500E0,7.262896729E-1,3.995191956E-1,9.839488678E0,9.874343002E0
6.720757500E0,7.107220459E-1,4.288581848E-1,9.833650818E0,9.868623692E0
6.730788500E0,6.945556641E-1,4.496649170E-1,9.839039612E0,9.873768611E0
6.740819500E0,6.997947693E-1,4.724176025E-1,9.829758911E0,9.865954154E0
6.750851500E0,6.774911499E-1,4.778063965E-1,9.795629883E0,9.830648911E0
6.760882500E0,6.753955078E-1,4.808001709E-1,9.829160156E0,9.864061905E0
6.770914500E0,6.646179199E-1,4.858895874E-1,9.889484711E0,9.923694550E0
6.780945500E0,6.644682312E-1,4.992118835E-1,9.799821167E0,9.835000022E0
6.790977500E0,6.806346130E-1,4.869374084E-1,9.782307587E0,9.818040193E0
6.801008500E0,7.207511902E-1,4.567002869E-1,9.804461517E0,9.841520364E0
6.811039500E0,7.527845764E-1,4.080514526E-1,9.855804749E0,9.892930701E0
6.821071500E0,7.616162109E-1,3.650907898E-1,9.895621948E0,9.931600288E0
6.831102500E0,7.565267944E-1,3.622467041E-1,9.873767395E0,9.909330857E0
6.841134500E0,7.590715027E-1,3.586541748E-1,9.860594788E0,9.896269597E0
6.851165500E0,7.569758606E-1,3.882925415E-1,9.858798523E0,9.895437932E0
6.861197500E0,7.803273010E-1,4.147874451E-1,9.844278717E0,9.883864769E0
6.871228500E0,7.628137207E-1,4.495152283E-1,9.791438599E0,9.831389451E0
6.881260500E0,7.216493225E-1,4.538562012E-1,9.785451050E0,9.822515739E0
6.891291500E0,7.033872986E-1,4.478686523E-1,9.816735992E0,9.852088386E0
6.901322500E0,7.195536804E-1,4.544549561E-1,9.866282959E0,9.902920086E0
6.911354500E0,7.265890503E-1,4.616400146E-1,9.835896149E0,9.873494630E0
6.921385500E0,7.107220459E-1,4.607418823E-1,9.821825409E0,9.858278920E0
6.931417500E0,6.872209167E-1,4.616400146E-1,9.818681946E0,9.853522175E0
6.941448500E0,6.626719666E-1,4.481680298E-1,9.823471985E0,9.855992622E0
6.951480500E0,6.587800598E-1,4.326004028E-1,9.825867004E0,9.857423429E0
6.961511500E0,6.536906433E-1,4.183799744E-1,9.817783813E0,9.848412678E0
6.971542500E0,6.566844177E-1,4.034111023E-1,9.824819183E0,9.855001113E0
6.981574500E0,6.643185425E-1,3.918850708E-1,9.832752686E0,9.862956880E0
6.991605500E0,6.981481934E-1,3.962260437E-1,9.853858795E0,9.886502877E0
7.001637500E0,7.101232910E-1,3.911366272E-1,9.868228912E0,9.901474881E0
7.011668500E0,7.156617737E-1,3.960763550E-1,9.858948212E0,9.892821038E0
7.021700500E0,7.286846924E-1,4.218228149E-1,9.849368134E0,9.885290512E0
7.031731500E0,7.250921631E-1,4.095483398E-1,9.819430389E0,9.854679176E0
7.041762500E0,7.229965210E-1,4.305047607E-1,9.814191284E0,9.850198418E0
7.051794500E0,6.899153137E-1,4.471202087E-1,9.809850311E0,9.844240080E0
7.061825500E0,6.884184265E-1,4.481680298E-1,9.817484436E0,9.851790455E0
7.071857500E0,7.137158203E-1,4.457730103E-1,9.812395020E0,9.848411033E0
7.081888500E0,7.165599060E-1,4.478686523E-1,9.828411713E0,9.864670355E0
7.091920500E0,7.231462097E-1,4.499642944E-1,9.836045837E0,9.872851970E0
7.101951500E0,7.333250427E-1,4.409829712E-1,9.836794281E0,9.873943150E0
7.111983500E0,7.135661316E-1,4.442761230E-1,9.839638367E0,9.875476752E0
7.122014500E0,7.141648865E-1,4.396357727E-1,9.831255798E0,9.866960103E0
7.132045500E0,7.063810730E-1,4.273612976E-1,9.832303619E0,9.866904599E0
7.142077500E0,7.005432129E-1,4.170327759E-1,9.822723541E0,9.856499120E0
7.152108500E0,7.074288940E-1,4.266128540E-1,9.819879456E0,9.854566794E0
7.162140500E0,6.994953918E-1,4.117936707E-1,9.803862762E0,9.837407834E0
7.172171500E0,6.779402161E-1,4.299060059E-1,9.809401245E0,9.842193602E0
7.182203500E0,6.864724731E-1,4.254153442E-1,9.824070740E0,9.857209979E0
7.192234500E0,7.045848083E-1,4.285588074E-1,9.870174866E0,9.904567345E0
7.202265500E0,7.301815796E-1,4.444258118E-1,9.887688446E0,9.924568618E0
7.212297500E0,7.225474548E-1,4.596940613E-1,9.849667511E0,9.886826768E0
7.222328500E0,6.950047302E-1,4.737648010E-1,9.801168365E0,9.837194010E0
7.232360500E0,6.490502930E-1,4.593946838E-1,9.770931244E0,9.803234524E0
7.242391500E0,6.441105652E-1,4.209246826E-1,9.815987549E0,9.846099104E0
7.252423500E0,6.698570251E-1,4.153862000E-1,9.848320312E0,9.879811087E0
7.262454500E0,6.935078430E-1,4.227209473E-1,9.775721283E0,9.809402262E0
7.272486500E0,6.686595154E-1,4.221221924E-1,9.769733734E0,9.801683015E0
7.282517500E0,7.083270264E-1,3.885919189E-1,9.879605255E0,9.912584469E0
7.292548500E0,7.460485840E-1,3.685336304E-1,9.910291443E0,9.945163750E0
7.302580500E0,7.595205688E-1,3.968247986E-1,9.897567902E0,9.934595703E0
7.312611500E0,7.509883118E-1,3.965254211E-1,9.854008484E0,9.890535833E0
7.322643500E0,7.104226685E-1,3.983216858E-1,9.797575836E0,9.831370850E0
7.332674500E0,6.947053528E-1,3.852987671E-1,9.812245331E0,9.844350111E0
7.342706500E0,7.267387390E-1,3.540138245E-1,9.840985565E0,9.874131449E0
7.352737500E0,7.580236816E-1,3.656895447E-1,9.882449341E0,9.918222306E0
7.362768500E0,7.460485840E-1,4.074526978E-1,9.880353699E0,9.916854108E0
7.372800500E0,7.038363647E-1,4.688250732E-1,9.818382568E0,9.854735858E0
7.382831500E0,6.962022400E-1,5.219645691E-1,9.793534241E0,9.832113582E0
7.392863500E0,7.009922791E-1,5.471122742E-1,9.810598755E0,9.850815699E0
7.402894500E0,7.074288940E-1,5.544470215E-1,9.831854553E0,9.872853240E0
7.412926500E0,7.223977661E-1,5.523513794E-1,9.846524048E0,9.888426892E0
7.422957500E0,6.953041077E-1,5.162763977E-1,9.869725800E0,9.907647374E0
7.432988500E0,6.794371033E-1,4.944218445E-1,9.865384827E0,9.901106277E0
7.443020500E0,6.893165588E-1,4.559518433E-1,9.844428406E0,9.879059674E0
7.453051500E0,6.987469482E-1,4.245172119E-1,9.843230896E0,9.877127955E0
7.463083500E0,6.953041077E-1,3.981719971E-1,9.817035370E0,9.849678786E0
7.473114500E0,7.117698669E-1,4.004173279E-1,9.802515564E0,9.836476085E0
7.483146500E0,7.156617737E-1,3.876937866E-1,9.798174591E0,9.831922679E0
7.493177500E0,7.083270264E-1,3.712280273E-1,9.807904358E0,9.840453512E0
7.503209500E0,7.217990112E-1,3.665876770E-1,9.818681946E0,9.851999568E0
7.513240500E0,7.176077271E-1,3.680845642E-1,9.834249573E0,9.867264654E0
7.523271500E0,7.032376099E-1,3.721261597E-1,9.824669495E0,9.856832741E0
7.533303500E0,7.203021240E-1,3.950285339E-1,9.832602997E0,9.866861932E0
7.543334500E0,7.032376099E-1,4.037104797E-1,9.841434631E0,9.874784093E0
7.553366500E0,7.014413452E-1,4.282594299E-1,9.843530273E0,9.877778816E0
7.563397500E0,7.068301392E-1,4.638853455E-1,9.846823425E0,9.883052667E0
7.573429500E0,6.912625122E-1,4.861889648E-1,9.832752686E0,9.869004456E0
7.583460500E0,6.780899048E-1,5.095404053E-1,9.797575836E0,9.834222369E0
7.593492500E0,6.762936401E-1,5.113366699E-1,9.899663544E0,9.935903409E0
7.603523500E0,6.593788147E-1,5.240602112E-1,9.839488678E0,9.875472494E0
7.613554500E0,6.539900208E-1,5.194198608E-1,9.796528015E0,9.832062911E0
7.623586500E0,6.830296326E-1,4.849914551E-1,9.789792023E0,9.825567365E0
7.633617500E0,7.132667542E-1,4.628375244E-1,9.806856537E0,9.843647859E0
7.643649500E0,7.378157043E-1,4.102967834E-1,9.867929535E0,9.903976412E0
7.653680500E0,7.565267944E-1,3.912863159E-1,9.872120819E0,9.908794439E0
7.663711500E0,7.493417358E-1,3.793112183E-1,9.860295410E0,9.895999980E0
7.673743750E0,7.608677673E-1,3.800596619E-1,9.865684204E0,9.902277007E0
7.683774750E0,7.671546936E-1,4.023632813E-1,9.833501129E0,9.871583814E0
7.693806750E0,7.638615417E-1,4.105961609E-1,9.811945953E0,9.850195788E0
7.703837750E0,7.328759766E-1,4.299060059E-1,9.774074707E0,9.810935875E0
7.713869750E0,7.098239136E-1,4.355941772E-1,9.794881439E0,9.830223532E0
7.723900750E0,7.041357422E-1,4.327500916E-1,9.835896149E0,9.870558892E0
7.733932750E0,7.237449646E-1,4.264631653E-1,9.861792297E0,9.897505995E0
7.743963750E0,7.273374939E-1,4.565505981E-1,9.845476227E0,9.882856895E0
7.753994750E0,7.135661316E-1,4.593946838E-1,9.830806732E0,9.867369513E0
7.764026750E0,6.735992432E-1,4.574487305E-1,9.825717316E0,9.859397347E0
7.774057750E0,6.671626282E-1,4.493655396E-1,9.828262024E0,9.861124164E0
7.784089750E0,6.578819275E-1,4.514611816E-1,9.808802490E0,9.841200746E0
7.794120750E0,6.556365967E-1,4.403842163E-1,9.808353424E0,9.840101346E0
7.804152750E0,6.593788147E-1,4.293072510E-1,9.791288910E0,9.822852114E0
7.814183750E0,6.671626282E-1,4.221221924E-1,9.840536499E0,9.872155373E0
7.824214750E0,6.993457031E-1,4.218228149E-1,9.846823425E0,9.880635125E0
7.834246750E0,7.066804504E-1,4.209246826E-1,9.862989807E0,9.897229046E0
7.844277750E0,7.143145752E-1,4.246669006E-1,9.863887939E0,9.898831879E0
7.854309750E0,6.993457031E-1,4.454736328E-1,9.840536499E0,9.875408334E0
7.864340750E0,7.216493225E-1,4.444258118E-1,9.833201752E0,9.869657985E0
7.874372750E0,7.104226685E-1,4.567002869E-1,9.842931519E0,9.879097955E0
7.884403750E0,6.903643799E-1,4.423301697E-1,9.830956421E0,9.865088094E0
7.894435750E0,6.988966370E-1,4.284091187E-1,9.838590546E0,9.872682250E0
7.904466750E0,7.141648865E-1,4.346960449E-1,9.833950195E0,9.869425950E0
7.914497750E0,7.033872986E-1,4.444258118E-1,9.813293152E0,9.848501941E0
7.924529750E0,7.002438354E-1,4.695735168E-1,9.796977081E0,9.833188732E0
7.934560750E0,6.965016174E-1,4.571493530E-1,9.814490662E0,9.849788169E0
7.944592750E0,7.104226685E-1,4.391867065E-1,9.839039612E0,9.874425847E0
7.954623750E0,7.385641479E-1,4.346960449E-1,9.856104126E0,9.893291980E0
7.964655750E0,7.391629028E-1,4.466711426E-1,9.864337006E0,9.902071575E0
7.974686750E0,7.137158203E-1,4.432283020E-1,9.819280701E0,9.855156776E0
7.984717750E0,6.878196716E-1,4.272116089E-1,9.804012451E0,9.837391209E0
7.994749750E0,6.712042236E-1,4.230203247E-1,9.807904358E0,9.839941524E0
8.004780750E0,6.721023560E-1,4.001179504E-1,9.839638367E0,9.870678758E0
8.014812750E0,6.682104492E-1,4.025129700E-1,9.789342957E0,9.820374607E0
8.024843750E0,6.659651184E-1,4.222718811E-1,9.742041321E0,9.773903630E0
8.034875750E0,6.882687378E-1,4.158352661E-1,9.840686188E0,9.873486591E0
8.044906750E0,7.261399841E-1,4.028123474E-1,9.862241364E0,9.897138060E0
8.054938750E0,7.607180786E-1,3.773652649E-1,9.894125061E0,9.930498843E0
8.064969750E0,7.566764832E-1,3.902384949E-1,9.882449341E0,9.919054912E0
8.075000750E0,7.276368713E-1,3.977229309E-1,9.836045837E0,9.870938996E0
8.085032750E0,7.304809570E-1,4.077520752E-1,9.813891907E0,9.849484176E0
8.095063750E0,7.243437195E-1,3.787124634E-1,9.814790039E0,9.848766444E0
8.105095750E0,7.526348877E-1,3.727249146E-1,9.849817200E0,9.885559266E0
8.115126750E0,7.496411133E-1,3.794609070E-1,9.862840118E0,9.898563915E0
8.125158750E0,7.188052368E-1,4.326004028E-1,9.842033386E0,9.877724700E0
8.135189750E0,6.875202942E-1,4.773573303E-1,9.794881439E0,9.830577632E0
8.145220750E0,6.713539124E-1,5.120851135E-1,9.805659027E0,9.841945752E0
8.155252750E0,6.911128235E-1,5.156776428E-1,9.825118561E0,9.862885739E0
8.165283750E0,6.957531738E-1,5.111869812E-1,9.845625916E0,9.883407018E0
8.175315750E0,6.973997498E-1,5.149291992E-1,9.880054321E0,9.918013505E0
8.185346750E0,6.979985046E-1,4.749623108E-1,9.881850586E0,9.917850680E0
8.195378750E0,7.134164429E-1,4.546046448E-1,9.873168640E0,9.909343439E0
8.205409750E0,7.023394775E-1,4.276606750E-1,9.849068756E0,9.883335963E0
8.215440750E0,7.098239136E-1,4.224215698E-1,9.827064514E0,9.861718255E0
8.225472750E0,7.289840698E-1,4.064048767E-1,9.788744202E0,9.824260570E0
8.235503750E0,7.379653931E-1,4.049079895E-1,9.780062256E0,9.816219289E0
8.245535750E0,7.291337585E-1,3.947291565E-1,9.783654785E0,9.818724362E0
8.255566750E0,7.159611511E-1,4.067042542E-1,9.795180817E0,9.829729190E0
8.265598750E0,6.918612671E-1,4.008663940E-1,9.833950195E0,9.866404731E0
8.275629750E0,6.988966370E-1,3.811074829E-1,9.869875488E0,9.901926155E0
8.285661750E0,7.252418518E-1,3.694317627E-1,9.865833893E0,9.899350179E0
8.295692750E0,7.232958984E-1,3.794609070E-1,9.866282959E0,9.900034695E0
8.305723750E0,7.146139526E-1,4.108955383E-1,9.854607239E0,9.889023818E0
8.315755750E0,6.953041077E-1,4.426295471E-1,9.833650818E0,9.868133417E0
8.325786750E0,6.825805664E-1,4.742138672E-1,9.822274475E0,9.857376471E0
8.335818750E0,6.840774536E-1,5.078938293E-1,9.776320038E0,9.813376156E0
8.345849750E0,6.515950012E-1,5.185217285E-1,9.863738251E0,9.898826855E0
8.355881750E0,6.274951172E-1,5.330415344E-1,9.828561401E0,9.862986496E0
8.365912750E0,6.168672180E-1,5.345384216E-1,9.785301361E0,9.819286085E0
8.375943750E0,6.366261292E-1,5.137316895E-1,9.806706848E0,9.840767871E0
8.385975750E0,6.885681152E-1,4.794529724E-1,9.826914825E0,9.862669831E0
8.396006750E0,7.213499451E-1,4.306544495E-1,9.866881714E0,9.902583691E0
8.406038750E0,7.390132141E-1,4.058061218E-1,9.894424438E0,9.930279659E0
8.416069750E0,7.444020081E-1,3.722758484E-1,9.874515839E0,9.909530095E0
8.426101750E0,7.586224365E-1,3.733236694E-1,9.848320312E0,9.884548120E0
8.436132750E0,7.592211914E-1,3.794609070E-1,9.838440857E0,9.874984855E0
8.446164750E0,7.608677673E-1,3.932322693E-1,9.809700623E0,9.847018720E0
8.456195750E0,7.337741089E-1,4.183799744E-1,9.783954163E0,9.820347514E0
8.466226750E0,7.143145752E-1,4.393363953E-1,9.774972839E0,9.810879461E0
8.476258750E0,7.129673767E-1,4.463717651E-1,9.790540466E0,9.826609428E0
8.486289750E0,7.104226685E-1,4.459226990E-1,9.836494904E0,9.872192229E0
8.496321750E0,7.137158203E-1,4.617897034E-1,9.869127045E0,9.905670529E0
8.506352750E0,7.294331360E-1,4.599934387E-1,9.857601013E0,9.895249587E0
8.516384750E0,7.005432129E-1,4.670288086E-1,9.827363892E0,9.863364424E0
8.526415750E0,6.855743408E-1,4.670288086E-1,9.829010468E0,9.863953308E0
8.536446750E0,6.502478027E-1,4.647834778E-1,9.819280701E0,9.851757171E0
8.546478750E0,6.400689697E-1,4.423301697E-1,9.799671478E0,9.830508906E0
8.556509750E0,6.442602539E-1,4.348457336E-1,9.798773346E0,9.829553457E0
8.566541750E0,6.547384644E-1,4.376898193E-1,9.819430389E0,9.850962796E0
8.576572750E0,6.712042236E-1,4.275109863E-1,9.844727783E0,9.876838861E0
8.586604750E0,6.920109558E-1,4.264631653E-1,9.848320312E0,9.881809701E0
8.596635750E0,7.026388550E-1,4.290078735E-1,9.870623932E0,9.904896058E0
8.606666750E0,7.152127075E-1,4.167333984E-1,9.866282959E0,9.900946186E0
8.616698750E0,7.093748474E-1,4.276606750E-1,9.845176849E0,9.879960198E0
8.626729750E0,6.968009949E-1,4.311035156E-1,9.846673737E0,9.880706733E0
8.636761750E0,7.051835632E-1,4.165837097E-1,9.826765137E0,9.860838651E0
8.646792750E0,6.959028625E-1,4.168830872E-1,9.835596771E0,9.868993675E0
8.656824750E0,7.005432129E-1,4.147874451E-1,9.823771362E0,9.857448615E0
8.666855750E0,6.951544189E-1,4.340972900E-1,9.809850311E0,9.844025765E0
8.676887750E0,7.018904114E-1,4.397854614E-1,9.781858521E0,9.816863935E0
8.686918750E0,6.899153137E-1,4.385879517E-1,9.794282684E0,9.828342476E0
8.696949750E0,7.030879211E-1,4.183799744E-1,9.839638367E0,9.873593956E0
8.706981750E0,7.165599060E-1,4.224215698E-1,9.868827667E0,9.903820354E0
8.717012750E0,7.282356262E-1,4.399351501E-1,9.848470001E0,9.885152069E0
8.727044750E0,7.107220459E-1,4.296066284E-1,9.844578094E0,9.879544804E0
8.737075750E0,6.836283875E-1,4.411326599E-1,9.811796265E0,9.845470620E0
8.747107750E0,6.686595154E-1,4.296066284E-1,9.829908600E0,9.861986133E0
8.757138750E0,6.647676086E-1,4.019142151E-1,9.874964905E0,9.905472370E0
8.767169750E0,6.728507996E-1,4.162843323E-1,9.808203735E0,9.840065109E0
8.777201750E0,6.460565186E-1,4.438270569E-1,9.754315796E0,9.785757412E0
8.787232750E0,6.746470642E-1,4.191284180E-1,9.838440857E0,9.870447598E0
8.797264750E0,7.247927856E-1,3.977229309E-1,9.862091675E0,9.896684309E0
8.807295750E0,7.461982727E-1,3.945794678E-1,9.890682220E0,9.926635865E0
8.817327750E0,7.635621643E-1,4.010160828E-1,9.869875488E0,9.907486222E0
8.827358750E0,7.235952759E-1,3.899391174E-1,9.833950195E0,9.868242958E0
8.837389750E0,7.113208008E-1,3.737727356E-1,9.844278717E0,9.877019125E0
8.847421750E0,7.107220459E-1,3.595523071E-1,9.813891907E0,9.846160574E0
8.857452750E0,7.442523193E-1,3.623963928E-1,9.839638367E0,9.874397493E0
8.867484750E0,7.406597900E-1,3.821553040E-1,9.844877472E0,9.880092714E0
8.877515750E0,7.015910339E-1,4.340972900E-1,9.823921051E0,9.858503703E0
8.887547750E0,6.704557800E-1,4.864883423E-1,9.787846069E0,9.822836278E0
8.897578750E0,6.801855469E-1,5.291496277E-1,9.796078949E0,9.833911454E0
8.907610750E0,7.000941467E-1,5.367837524E-1,9.814939728E0,9.854507115E0
8.917641750E0,6.960525513E-1,5.258564758E-1,9.859097900E0,9.897617168E0
8.927672750E0,7.042854309E-1,5.087919617E-1,9.873318329E0,9.911473253E0
8.937704750E0,7.023394775E-1,4.743635559E-1,9.872569885E0,9.908881756E0
8.947735750E0,6.804849243E-1,4.348457336E-1,9.850266266E0,9.883314022E0
8.957767750E0,6.834786987E-1,4.147874451E-1,9.866282959E0,9.898622691E0
8.967798750E0,6.932084656E-1,3.826043701E-1,9.832153931E0,9.863983729E0
8.977830750E0,7.044351196E-1,3.761677551E-1,9.809700623E0,9.842152068E0
8.987861750E0,7.176077271E-1,3.647914124E-1,9.797725525E0,9.830740516E0
8.997892750E0,7.204518127E-1,3.656895447E-1,9.777218170E0,9.810544063E0
9.007924750E0,7.131170654E-1,3.629951477E-1,9.787546692E0,9.820202222E0
9.017955750E0,7.060816956E-1,3.851490784E-1,9.827962646E0,9.860818473E0
9.027987750E0,6.947053528E-1,3.730242920E-1,9.846973114E0,9.878493922E0
9.038018750E0,7.104226685E-1,3.706292725E-1,9.849667511E0,9.882207066E0
9.048050750E0,7.200027466E-1,3.790118408E-1,9.855505371E0,9.889036356E0
9.058081750E0,7.039860535E-1,4.152365112E-1,9.838889923E0,9.872779378E0
9.068113750E0,6.963519287E-1,4.438270569E-1,9.856253815E0,9.890784990E0
9.078144750E0,6.815327454E-1,4.730163574E-1,9.829160156E0,9.864107701E0
9.088175750E0,6.566844177E-1,4.966671753E-1,9.799222412E0,9.833751705E0
9.098207750E0,6.469546509E-1,5.201683044E-1,9.876162415E0,9.910989326E0
9.108238750E0,6.265969849E-1,5.072950745E-1,9.798923035E0,9.832032583E0
9.118270750E0,6.206094360E-1,5.010081482E-1,9.794132996E0,9.826556181E0
9.128301750E0,6.542893982E-1,4.716691589E-1,9.841883698E0,9.874879297E0
9.138333750E0,6.941065979E-1,4.355941772E-1,9.818083191E0,9.852222277E0
9.148364750E0,7.098239136E-1,3.980223083E-1,9.855056305E0,9.888599826E0
9.158395750E0,7.180567932E-1,3.712280273E-1,9.886640625E0,9.919630974E0
9.168427750E0,7.372169495E-1,3.653901672E-1,9.891131287E0,9.925294803E0
9.178458750E0,7.472460938E-1,3.591032410E-1,9.851613464E0,9.886436148E0
9.188490750E0,7.568261719E-1,3.695814514E-1,9.837542725E0,9.873531443E0
9.198521750E0,7.253915405E-1,3.790118408E-1,9.810748444E0,9.844827469E0
9.208553750E0,7.072792053E-1,3.992198181E-1,9.778265991E0,9.811936921E0
9.218584750E0,7.018904114E-1,4.155358887E-1,9.785451050E0,9.819387581E0
9.228616750E0,6.849755859E-1,4.284091187E-1,9.820927277E0,9.854102623E0
9.238647750E0,6.915618896E-1,4.358935547E-1,9.842781830E0,9.876670248E0
9.248678750E0,6.860234070E-1,4.439767456E-1,9.878258057E0,9.911999077E0
9.258710750E0,6.843768311E-1,4.507127380E-1,9.839039612E0,9.873105596E0
9.268741750E0,6.753955078E-1,4.433779907E-1,9.846973114E0,9.880061874E0
9.278773750E0,6.468049622E-1,4.336482239E-1,9.838291168E0,9.869061787E0
9.288804750E0,6.274951172E-1,4.123924255E-1,9.824519806E0,9.853172436E0
9.298836750E0,6.198609924E-1,4.076023865E-1,9.811945953E0,9.839951765E0
9.308867750E0,6.201603699E-1,4.195774841E-1,9.815987549E0,9.844503833E0
9.318898750E0,6.415658569E-1,3.927832031E-1,9.829459534E0,9.858202682E0
9.328930750E0,6.502478027E-1,3.932322693E-1,9.829908600E0,9.859237136E0
9.338961750E0,6.679110718E-1,3.969744873E-1,9.834848328E0,9.865492161E0
9.348993750E0,6.744973755E-1,4.128414917E-1,9.840835876E0,9.872559727E0
9.359024750E0,6.767427063E-1,4.002676392E-1,9.830357666E0,9.861750692E0
9.369056750E0,6.765930176E-1,3.857478333E-1,9.830507355E0,9.861310986E0
9.379087750E0,6.698570251E-1,3.857478333E-1,9.834249573E0,9.864581820E0
9.389118750E0,6.816824341E-1,3.752696228E-1,9.861193542E0,9.891847973E0
9.399150750E0,6.915618896E-1,3.839515686E-1,9.839638367E0,9.871380848E0
9.409181750E0,6.944059753E-1,3.965254211E-1,9.830207977E0,9.862678183E0
9.419213750E0,6.888674927E-1,4.026626587E-1,9.809251556E0,9.841650864E0
9.429244750E0,6.915618896E-1,3.978726196E-1,9.830207977E0,9.862532603E0
9.439276750E0,6.969506836E-1,3.881428528E-1,9.871222687E0,9.903405094E0
9.449307750E0,7.253915405E-1,4.122427368E-1,9.866282959E0,9.901498694E0
9.459339750E0,7.122189331E-1,4.257147217E-1,9.850715332E0,9.885599698E0
9.469370750E0,6.828799438E-1,4.326004028E-1,9.833950195E0,9.867119365E0
9.479401750E0,6.656657410E-1,4.210743713E-1,9.839788055E0,9.871263520E0
9.489433750E0,6.599775696E-1,3.956272888E-1,9.863289185E0,9.893258557E0
9.499464750E0,6.680607605E-1,3.939807129E-1,9.866282959E0,9.896719932E0
9.509496750E0,6.677613831E-1,4.146377563E-1,9.796228638E0,9.827712107E0
9.519527750E0,6.547384644E-1,4.284091187E-1,9.804910583E0,9.836080946E0
9.529559750E0,6.818321228E-1,3.981719971E-1,9.861492920E0,9.893052036E0
9.539590750E0,7.140151978E-1,3.715274048E-1,9.877509613E0,9.910249567E0
9.549621750E0,7.435038757E-1,3.799099731E-1,9.881251831E0,9.916464458E0
9.559653750E0,7.066804504E-1,3.686833191E-1,9.805808716E0,9.838150701E0
9.569684750E0,6.875202942E-1,3.592529297E-1,9.808054047E0,9.838682382E0
9.579716750E0,6.709048462E-1,3.362008667E-1,9.797575836E0,9.826272773E0
9.589747750E0,7.041357422E-1,3.249742126E-1,9.812395020E0,9.842993010E0
9.599779750E0,7.264393616E-1,3.056643677E-1,9.858349457E0,9.889802772E0
9.609810750E0,7.243437195E-1,3.414399719E-1,9.842033386E0,9.874557016E0
9.619842750E0,6.972500610E-1,3.884422302E-1,9.814041595E0,9.846443899E0
9.629873750E0,6.743476868E-1,4.465214539E-1,9.786498871E0,9.819861830E0
9.639904750E0,6.864724731E-1,4.831951904E-1,9.796827393E0,9.832728462E0
9.649936750E0,6.852749634E-1,5.155279541E-1,9.805060272E0,9.842488394E0
9.659967750E0,6.797364807E-1,5.068460083E-1,9.846973114E0,9.883411054E0
9.669999750E0,6.792874146E-1,4.945715332E-1,9.859996033E0,9.895734139E0
9.680030208E0,6.659651184E-1,4.550537109E-1,9.861941986E0,9.894871558E0
9.690062208E0,6.420149231E-1,4.243675232E-1,9.852361908E0,9.882373506E0
9.700093208E0,6.608757019E-1,3.980223083E-1,9.865384827E0,9.895503839E0
9.710124208E0,6.810836792E-1,3.679348755E-1,9.849368134E0,9.879742086E0
9.720156208E0,6.954537964E-1,3.523672485E-1,9.820777588E0,9.851674532E0
9.730187208E0,7.168592834E-1,3.359014893E-1,9.822873230E0,9.854722499E0
9.740219208E0,7.131170654E-1,3.483256531E-1,9.827214203E0,9.859209182E0
9.750250208E0,7.478448486E-1,3.414399719E-1,9.834249573E0,9.868551962E0
9.760282208E0,7.310797119E-1,3.317102051E-1,9.829160156E0,9.861891227E0
9.770313208E0,7.189549255E-1,3.480262756E-1,9.846673737E0,9.879018279E0
9.780345208E0,7.300318909E-1,3.682342529E-1,9.842632141E0,9.876535349E0
9.790376208E0,7.107220459E-1,3.806584167E-1,9.819430389E0,9.852473792E0
9.800407208E0,7.098239136E-1,4.087998962E-1,9.833800507E0,9.867856897E0
9.810439208E0,7.267387390E-1,4.323010254E-1,9.851014709E0,9.887240473E0
9.820470208E0,7.041357422E-1,4.451742554E-1,9.826765137E0,9.862012995E0
9.830502208E0,6.854246521E-1,4.667294312E-1,9.877958679E0,9.912704524E0
9.840533208E0,6.725514221E-1,4.754113770E-1,9.862690430E0,9.897019951E0
9.850565208E0,6.403683472E-1,4.677772522E-1,9.796677704E0,9.828722257E0
9.860596208E0,6.578819275E-1,4.303550720E-1,9.832453308E0,9.863830502E0
9.870627208E0,6.921606445E-1,4.111949158E-1,9.825867004E0,9.858794551E0
9.880659208E0,7.054829407E-1,3.858975220E-1,9.827214203E0,9.860058928E0
9.890690208E0,7.131170654E-1,3.493734741E-1,9.865534515E0,9.897442551E0
9.900722208E0,7.499404907E-1,3.171903992E-1,9.887987823E0,9.921457740E0
9.910753208E0,7.593708801E-1,3.370989990E-1,9.865534515E0,9.900457118E0
9.920785208E0,7.620652771E-1,3.450325012E-1,9.862241364E0,9.897656067E0
9.930816208E0,7.568261719E-1,3.628454590E-1,9.826465759E0,9.862244775E0
9.940847208E0,7.376660156E-1,3.959266663E-1,9.801018677E0,9.836710638E0
9.950879208E0,7.268884277E-1,4.044589233E-1,9.789193268E0,9.824472436E0
9.960910208E0,6.982978821E-1,3.977229309E-1,9.799372101E0,9.832268153E0
9.970942208E0,6.933581543E-1,4.117936707E-1,9.820478210E0,9.853532962E0
9.980973208E0,6.976991272E-1,4.046086121E-1,9.856253815E0,9.889197716E0
9.991005208E0,7.021897888E-1,4.167333984E-1,9.846823425E0,9.880620871E0
1.000103621E1,6.968009949E-1,4.165837097E-1,9.843829651E0,9.877249405E0
1.001106821E1,6.876699829E-1,4.089495850E-1,9.843380585E0,9.875842805E0
1.002109921E1,6.747967529E-1,4.049079895E-1,9.832752686E0,9.864194164E0
1.003113021E1,6.691085815E-1,3.906875610E-1,9.828262024E0,9.858756386E0
1.004116221E1,6.718029785E-1,3.915856934E-1,9.811646576E0,9.842411652E0
1.005119321E1,6.798861694E-1,3.752696228E-1,9.819280701E0,9.849941420E0
1.006122521E1,6.879693604E-1,3.769161987E-1,9.833950195E0,9.865188498E0
1.007125621E1,7.035369873E-1,3.751199341E-1,9.833201752E0,9.865471907E0
1.008128821E1,7.207511902E-1,3.736230469E-1,9.835447083E0,9.868895367E0
1.009131921E1,7.214996338E-1,3.787124634E-1,9.862391052E0,9.895996267E0
1.010135021E1,7.035369873E-1,3.781137085E-1,9.846823425E0,9.879163215E0
1.011138221E1,7.054829407E-1,3.929328918E-1,9.830207977E0,9.863320501E0
1.012141321E1,7.011419678E-1,3.824546814E-1,9.841284943E0,9.873639702E0
1.013144521E1,6.999444580E-1,3.749702454E-1,9.852661285E0,9.884607192E0
1.014147621E1,6.996450806E-1,3.787124634E-1,9.819131012E0,9.851307538E0
1.015150821E1,6.923103333E-1,3.944297791E-1,9.801467743E0,9.833800810E0
1.016153921E1,6.770420837E-1,4.113446045E-1,9.802515564E0,9.834475164E0
1.017157121E1,6.982978821E-1,3.954776001E-1,9.818981323E0,9.851721509E0
1.018160221E1,7.369175720E-1,3.954776001E-1,9.842931519E0,9.878398196E0
1.019163321E1,7.226971436E-1,3.962260437E-1,9.855056305E0,9.889460097E0
1.020166521E1,7.026388550E-1,3.873944092E-1,9.825717316E0,9.858422620E0
1.021169621E1,6.953041077E-1,3.918850708E-1,9.817334747E0,9.849725034E0
1.022172821E1,6.800358582E-1,3.668870544E-1,9.826316071E0,9.856649654E0
1.023175921E1,6.923103333E-1,3.481759644E-1,9.861492920E0,9.891893788E0
1.024179121E1,6.900650024E-1,3.625460815E-1,9.817783813E0,9.848680540E0
1.025182221E1,6.722520447E-1,4.017645264E-1,9.800419922E0,9.831661517E0
1.026185321E1,6.831793213E-1,3.787124634E-1,9.848919067E0,9.879846351E0
1.027188521E1,7.255412292E-1,3.671864319E-1,9.866881714E0,9.900332858E0
1.028191621E1,7.717950439E-1,3.611988831E-1,9.906549225E0,9.943130783E0
1.029194821E1,7.568261719E-1,3.914360046E-1,9.849817200E0,9.886602393E0
1.030197921E1,7.194039917E-1,3.847000122E-1,9.813143463E0,9.846995523E0
1.031201121E1,7.059320068E-1,3.676354980E-1,9.795180817E0,9.827464734E0
1.032204221E1,7.318281555E-1,3.429368591E-1,9.801767120E0,9.835030087E0
1.033207421E1,7.493417358E-1,3.254232788E-1,9.813442841E0,9.847389184E0
1.034210521E1,7.625143433E-1,3.445834351E-1,9.837542725E0,9.873065012E0
1.035213621E1,7.381150818E-1,3.791615295E-1,9.814340973E0,9.849358663E0
1.036216821E1,7.162605286E-1,4.231700134E-1,9.795629883E0,9.830893490E0
1.037219921E1,7.155120850E-1,4.513114929E-1,9.794582062E0,9.831046606E0
1.038223121E1,7.197033691E-1,4.808001709E-1,9.809850311E0,9.847959427E0
1.039226221E1,7.220983887E-1,4.724176025E-1,9.852361908E0,9.890077838E0
1.040229421E1,7.117698669E-1,4.493655396E-1,9.886640625E0,9.922409414E0
1.041232521E1,6.984475708E-1,4.373904419E-1,9.887838135E0,9.922120861E0
1.042235621E1,6.779402161E-1,4.147874451E-1,9.883796539E0,9.915698946E0
1.043238821E1,6.753955078E-1,4.070036316E-1,9.861343231E0,9.892820698E0
1.044241921E1,6.692582703E-1,4.049079895E-1,9.832902374E0,9.863966049E0
1.045245121E1,6.834786987E-1,3.806584167E-1,9.821675720E0,9.852784272E0
1.046248221E1,6.936575317E-1,3.802093506E-1,9.815538483E0,9.847360846E0
1.047251421E1,7.137158203E-1,3.704795837E-1,9.812095642E0,9.844991939E0
1.048254521E1,7.212002563E-1,3.793112183E-1,9.815987549E0,9.849752198E0
1.049257621E1,7.223977661E-1,3.809577942E-1,9.828711090E0,9.862583286E0
1.050260821E1,7.191046143E-1,3.743714905E-1,9.851763153E0,9.885064627E0
1.051263921E1,7.246430969E-1,3.659889221E-1,9.868528290E0,9.901863770E0
1.052267121E1,7.378157043E-1,3.731739807E-1,9.855205994E0,9.889828917E0
1.053270221E1,7.229965210E-1,3.978726196E-1,9.841883698E0,9.876421483E0
1.054273421E1,7.349716187E-1,4.201762390E-1,9.874515839E0,9.910741365E0
1.055276521E1,7.089257812E-1,4.399351501E-1,9.861941986E0,9.897172244E0
1.056279721E1,6.990463257E-1,4.571493530E-1,9.846823425E0,9.882185126E0
1.057282821E1,6.903643799E-1,4.743635559E-1,9.877509613E0,9.912962217E0
1.058285921E1,6.599775696E-1,4.685256958E-1,9.801318054E0,9.834679574E0
1.059289121E1,6.655160522E-1,4.507127380E-1,9.812395020E0,9.845260261E0
1.060292221E1,7.078779602E-1,4.176315308E-1,9.843530273E0,9.877782927E0
1.061295421E1,7.271878052E-1,4.034111023E-1,9.841883698E0,9.876953849E0
1.062298521E1,7.310797119E-1,3.697311401E-1,9.845925293E0,9.879950584E0
1.063301721E1,7.367678833E-1,3.318598938E-1,9.873168640E0,9.906180742E0
1.064304821E1,7.640112305E-1,3.228785706E-1,9.887838135E0,9.922565531E0
1.065307921E1,7.822732544E-1,3.287164307E-1,9.855954437E0,9.892413447E0
1.066311121E1,7.845185852E-1,3.525169373E-1,9.847272491E0,9.884761662E0
1.067314221E1,7.869136047E-1,3.598516846E-1,9.814191284E0,9.852262523E0
1.068317433E1,7.505392456E-1,3.700305176E-1,9.790989532E0,9.826683457E0
1.069320533E1,7.544311523E-1,3.969744873E-1,9.805209961E0,9.842199830E0
1.070323733E1,7.270381165E-1,3.989204407E-1,9.800569611E0,9.835592846E0
1.071326833E1,7.324269104E-1,3.926335144E-1,9.835596771E0,9.870642031E0
1.072330033E1,7.306306458E-1,3.888912964E-1,9.838889923E0,9.873642312E0
1.073333133E1,7.191046143E-1,3.944297791E-1,9.839788055E0,9.873910840E0
1.074336233E1,7.080276489E-1,3.968247986E-1,9.844129028E0,9.877532556E0
1.075339433E1,6.942562866E-1,3.814068604E-1,9.837842102E0,9.869680857E0
1.076342533E1,6.807843018E-1,3.855981445E-1,9.838291168E0,9.869352882E0
1.077345733E1,6.810836792E-1,3.731739807E-1,9.816586304E0,9.847258525E0
1.078348833E1,6.999444580E-1,3.628454590E-1,9.819879456E0,9.851477635E0
1.079352033E1,6.975494385E-1,3.543132019E-1,9.836644592E0,9.867709456E0
1.080355133E1,6.905140686E-1,3.788621521E-1,9.842033386E0,9.873498234E0
1.081358233E1,7.156617737E-1,3.692820740E-1,9.822873230E0,9.855829722E0
1.082361433E1,7.081773376E-1,3.760180664E-1,9.832453308E0,9.865092133E0
1.083364533E1,7.156617737E-1,3.676354980E-1,9.838291168E0,9.871134724E0
1.084367733E1,7.185058594E-1,3.528163147E-1,9.836644592E0,9.869159379E0
1.085370833E1,7.366181946E-1,3.478765869E-1,9.849068756E0,9.882701040E0
1.086374033E1,7.358697510E-1,3.608995056E-1,9.853110352E0,9.887139948E0
1.087377133E1,7.238946533E-1,3.730242920E-1,9.815688171E0,9.849411397E0
1.088380333E1,7.008425903E-1,3.864962769E-1,9.807455292E0,9.840057876E0
1.089383433E1,7.056326294E-1,3.986210632E-1,9.818532257E0,9.851923256E0
1.090386533E1,7.096742249E-1,3.902384949E-1,9.840237122E0,9.873509518E0
1.091389733E1,7.325765991E-1,3.736230469E-1,9.847721558E0,9.881997902E0
1.092392833E1,7.436535645E-1,3.998185730E-1,9.859996033E0,9.896079895E0
1.093396033E1,7.316784668E-1,4.014651489E-1,9.854008484E0,9.889287681E0
1.094399133E1,7.357200623E-1,4.007167053E-1,9.816436615E0,9.852120873E0
1.095402333E1,7.301815796E-1,3.932322693E-1,9.832153931E0,9.867068849E0
1.096405433E1,7.370672607E-1,3.719764709E-1,9.858948212E0,9.893457155E0
1.097408533E1,7.310797119E-1,3.769161987E-1,9.823771362E0,9.858145218E0
1.098411733E1,7.149133301E-1,3.814068604E-1,9.779912567E0,9.813422547E0
1.099414833E1,7.054829407E-1,4.031117249E-1,9.764494629E0,9.798242730E0
1.100418033E1,7.203021240E-1,3.734733582E-1,9.788594513E0,9.822163715E0
1.101421133E1,7.662565613E-1,3.306623840E-1,9.854158173E0,9.889434768E0
1.102424333E1,8.090675354E-1,3.314108276E-1,9.886940002E0,9.925522960E0
1.103427433E1,8.231382751E-1,2.974314880E-1,9.914482727E0,9.953039227E0
1.104430633E1,8.111631775E-1,3.291654968E-1,9.857151947E0,9.895947662E0
1.105433733E1,7.711962891E-1,3.508703613E-1,9.746382294E0,9.783139657E0
1.106436833E1,7.484436035E-1,3.523672485E-1,9.772128754E0,9.807080650E0
1.107440033E1,7.400610352E-1,3.658392334E-1,9.826166382E0,9.860784677E0
1.108443133E1,7.156617737E-1,3.933819580E-1,9.791588287E0,9.825585088E0
1.109446333E1,6.938072205E-1,4.243675232E-1,9.768386536E0,9.802185050E0
1.110449433E1,6.966513062E-1,4.851411438E-1,9.780361633E0,9.817135970E0
1.111452633E1,7.171586609E-1,5.022056580E-1,9.780511322E0,9.819619585E0
1.112455733E1,7.435038757E-1,4.799020386E-1,9.837542725E0,9.877264340E0
1.113458833E1,7.466473389E-1,4.481680298E-1,9.896071014E0,9.934312173E0
1.114462033E1,7.331753540E-1,4.061054993E-1,9.921218719E0,9.956558073E0
1.115465133E1,7.219487000E-1,3.881428528E-1,9.912387085E0,9.946219509E0
1.116468333E1,7.262896729E-1,3.562591553E-1,9.887389069E0,9.920427404E0
1.117471433E1,7.292834473E-1,3.540138245E-1,9.845176849E0,9.878496208E0
1.118474633E1,7.297325134E-1,3.595523071E-1,9.799072723E0,9.832782599E0
1.119477733E1,7.328759766E-1,3.597019958E-1,9.782307587E0,9.816314708E0
1.120480933E1,7.557783508E-1,3.625460815E-1,9.785301361E0,9.821138595E0
1.121484033E1,7.676037598E-1,3.784130859E-1,9.782756653E0,9.820119130E0
1.122487133E1,7.581733704E-1,3.854484558E-1,9.806706848E0,9.843520538E0
1.123490333E1,7.457492065E-1,3.540138245E-1,9.832303619E0,9.866897290E0
1.124493433E1,7.556286621E-1,3.492237854E-1,9.852062531E0,9.887166835E0
1.125496633E1,7.526348877E-1,3.577560425E-1,9.833201752E0,9.868449997E0
1.126499733E1,7.444020081E-1,3.722758484E-1,9.846973114E0,9.882084960E0
1.127502933E1,7.589218140E-1,3.858975220E-1,9.848020935E0,9.884755715E0
1.128506033E1,7.649093628E-1,3.990701294E-1,9.810000000E0,9.847864911E0
1.129509133E1,7.421566772E-1,4.177812195E-1,9.909692688E0,9.946222743E0
1.130512333E1,7.304809570E-1,4.531077576E-1,9.838141479E0,9.875623365E0
1.131515433E1,7.188052368E-1,4.707710266E-1,9.773326263E0,9.811025052E0
1.132518633E1,7.412585449E-1,4.227209473E-1,9.845476227E0,9.882386319E0
1.133521733E1,7.786807251E-1,4.026626587E-1,9.857301636E0,9.896205153E0
1.134524933E1,7.532336426E-1,4.025129700E-1,9.822124786E0,9.859184192E0
1.135528033E1,7.222480774E-1,3.960763550E-1,9.817783813E0,9.852278811E0
1.136531233E1,7.351213074E-1,3.562591553E-1,9.859397278E0,9.893181420E0
1.137534333E1,7.945477295E-1,3.363505554E-1,9.899962921E0,9.937489805E0
1.138537433E1,8.199948120E-1,3.487747192E-1,9.883796539E0,9.923883782E0
1.139540633E1,8.137078857E-1,3.600013733E-1,9.837243347E0,9.877402401E0
1.140543733E1,7.867639160E-1,3.838018799E-1,9.818831635E0,9.857776423E0
1.141546933E1,7.656578064E-1,3.748205566E-1,9.795031128E0,9.832057624E0
1.142550033E1,7.646099854E-1,3.766168213E-1,9.824370117E0,9.861273592E0
1.143553233E1,7.764353943E-1,3.974235535E-1,9.817484436E0,9.856155338E0
1.144556333E1,7.667056274E-1,3.867956543E-1,9.804611206E0,9.842146580E0
1.145559433E1,7.589218140E-1,3.983216858E-1,9.791288910E0,9.828731404E0
1.146562633E1,7.430548096E-1,3.954776001E-1,9.790540466E0,9.826658415E0
1.147565733E1,7.289840698E-1,3.808081055E-1,9.804760895E0,9.839195536E0
1.148568933E1,7.285350037E-1,3.769161987E-1,9.818382568E0,9.852586733E0
1.149572033E1,7.228468323E-1,3.733236694E-1,9.826465759E0,9.860086583E0
1.150575233E1,7.292834473E-1,3.592529297E-1,9.834998016E0,9.868541077E0
1.151578333E1,7.200027466E-1,3.686833191E-1,9.828561401E0,9.861792462E0
1.152581533E1,7.229965210E-1,3.703298950E-1,9.798923035E0,9.832535830E0
1.153584633E1,7.414082336E-1,3.691323853E-1,9.801617432E0,9.836546608E0
1.154587733E1,7.315287781E-1,3.688330078E-1,9.823322296E0,9.857425276E0
1.155590933E1,7.467970276E-1,3.520678711E-1,9.840536499E0,9.875110945E0
1.156594033E1,7.514373779E-1,3.481759644E-1,9.841434631E0,9.876219937E0
1.157597233E1,7.478448486E-1,3.546125793E-1,9.846673737E0,9.881396949E0
1.158600333E1,7.309300232E-1,3.814068604E-1,9.847422180E0,9.881874999E0
1.159603533E1,7.435038757E-1,3.909869385E-1,9.877509613E0,9.913166243E0
1.160606633E1,7.577243042E-1,4.080514526E-1,9.861941986E0,9.899421794E0
1.161609833E1,7.658074951E-1,4.129911804E-1,9.846823425E0,9.885188638E0
1.162612933E1,7.463479614E-1,4.204756165E-1,9.827812958E0,9.865076916E0
1.163616033E1,7.328759766E-1,4.046086121E-1,9.805509338E0,9.841180250E0
1.164619233E1,7.361691284E-1,3.941304016E-1,9.820627899E0,9.856064940E0
1.165622333E1,7.505392456E-1,3.719764709E-1,9.869576111E0,9.905059730E0
1.166625533E1,7.696994019E-1,3.830534363E-1,9.854158173E0,9.891592409E0
1.167628671E1,7.508386230E-1,4.007167053E-1,9.768236847E0,9.805242660E0
1.168631871E1,7.488926697E-1,3.969744873E-1,9.781708832E0,9.818363237E0
1.169634971E1,7.689509583E-1,3.709286499E-1,9.803264008E0,9.840368837E0
1.170638071E1,7.911048889E-1,3.248245239E-1,9.863289185E0,9.900294514E0
1.171641271E1,8.261320496E-1,3.110531616E-1,9.848170624E0,9.887654569E0
1.172644371E1,8.431965637E-1,2.909948730E-1,9.925260315E0,9.965262203E0
1.173647571E1,8.349636841E-1,3.240760803E-1,9.856253815E0,9.896864600E0
1.174650671E1,7.852670288E-1,3.739224243E-1,9.751621399E0,9.790331056E0
1.175653871E1,7.494914246E-1,3.688330078E-1,9.771230621E0,9.806871216E0
1.176656971E1,7.316784668E-1,3.918850708E-1,9.814041595E0,9.849078115E0
1.177660171E1,7.217990112E-1,4.355941772E-1,9.812544708E0,9.848693809E0
1.178663271E1,7.235952759E-1,4.652325439E-1,9.814340973E0,9.851970370E0
1.179666371E1,7.372169495E-1,4.896318054E-1,9.797725525E0,9.837614223E0
1.180669571E1,7.694000244E-1,4.864883423E-1,9.821675720E0,9.863770134E0
1.181672671E1,7.752378845E-1,4.884342957E-1,9.854008484E0,9.896516813E0
1.182675871E1,7.616162109E-1,4.457730103E-1,9.886191559E0,9.925500308E0
1.183678971E1,7.435038757E-1,4.074526978E-1,9.864187317E0,9.900555900E0
1.184682171E1,7.429051208E-1,3.740721130E-1,9.866732025E0,9.901729082E0
1.185685271E1,7.382647705E-1,3.486250305E-1,9.849368134E0,9.883148634E0
1.186688371E1,7.409591675E-1,3.426374817E-1,9.811945953E0,9.845847060E0
1.187691571E1,7.542814636E-1,3.441343689E-1,9.799372101E0,9.834381656E0
1.188694671E1,7.710466003E-1,3.394940186E-1,9.794432373E0,9.830598891E0
1.189697871E1,7.803273010E-1,3.429368591E-1,9.786049805E0,9.823099672E0
1.190700971E1,7.719447327E-1,3.423381042E-1,9.821526031E0,9.857761796E0
1.191704171E1,7.800279236E-1,3.604504395E-1,9.845027161E0,9.882455559E0
1.192707271E1,7.596702576E-1,3.808081055E-1,9.835147705E0,9.871790319E0
1.193710371E1,7.568261719E-1,3.835025024E-1,9.850865021E0,9.887335419E0
1.194713571E1,7.476951599E-1,3.929328918E-1,9.831405487E0,9.867622721E0
1.195716671E1,7.553292847E-1,3.999682617E-1,9.831555176E0,9.868635879E0
1.196719871E1,7.634124756E-1,4.246669006E-1,9.839488678E0,9.878192042E0
1.197722971E1,7.720944214E-1,4.328997803E-1,9.814939728E0,9.854774167E0
1.198726171E1,7.586224365E-1,4.561015320E-1,9.808203735E0,9.848065654E0
1.199729271E1,7.732919312E-1,4.541555786E-1,9.913434906E0,9.953915277E0
1.200732471E1,7.722441101E-1,4.664300537E-1,9.810748444E0,9.852142051E0
1.201735571E1,7.647596741E-1,4.578977966E-1,9.784852295E0,9.825368298E0
1.202738671E1,7.759863281E-1,4.198768616E-1,9.837393036E0,9.876879725E0
1.203741871E1,7.855664063E-1,4.055067444E-1,9.776170349E0,9.816061175E0
1.204744971E1,7.493417358E-1,3.600013733E-1,9.827962646E0,9.863060570E0
1.205748171E1,7.756869507E-1,3.441343689E-1,9.891131287E0,9.927466789E0
1.206751271E1,8.270301819E-1,3.597019958E-1,9.887389069E0,9.928435277E0
1.207754471E1,8.351133728E-1,3.674858093E-1,9.861492920E0,9.903610593E0
1.208757571E1,8.225395203E-1,3.929328918E-1,9.821376343E0,9.863589650E0
1.209760771E1,7.903564453E-1,4.080514526E-1,9.779164124E0,9.819532588E0
1.210763871E1,7.682025146E-1,4.444258118E-1,9.748627625E0,9.788942229E0
1.211766971E1,7.553292847E-1,4.225712585E-1,9.783654785E0,9.821862845E0
1.212770171E1,7.595205688E-1,4.251159668E-1,9.835746460E0,9.874183688E0
1.213773271E1,7.842192078E-1,4.158352661E-1,9.828860779E0,9.868861279E0
1.214776471E1,7.812254333E-1,4.011657715E-1,9.809101868E0,9.848336235E0
1.215779571E1,7.647596741E-1,3.882925415E-1,9.819280701E0,9.856667892E0
1.216782771E1,7.716453552E-1,3.854484558E-1,9.846673737E0,9.884381151E0
1.217785871E1,7.746391296E-1,3.646417236E-1,9.836943970E0,9.874132672E0
1.218788971E1,7.417076111E-1,3.824546814E-1,9.815239105E0,9.850650763E0
1.219792171E1,7.319778442E-1,3.716770935E-1,9.822573853E0,9.856819594E0
1.220795271E1,7.279362488E-1,3.821553040E-1,9.818981323E0,9.853340961E0
1.221798471E1,7.438032532E-1,3.996688843E-1,9.814490662E0,9.850746441E0
1.222801571E1,7.701484680E-1,3.986210632E-1,9.808054047E0,9.846316651E0
1.223804771E1,7.647596741E-1,3.796105957E-1,9.824519806E0,9.861549117E0
1.224807871E1,7.716453552E-1,3.936813354E-1,9.841284943E0,9.879337572E0
1.225811071E1,7.671546936E-1,3.996688843E-1,9.810000000E0,9.848063847E0
1.226814171E1,7.514373779E-1,3.986210632E-1,9.826765137E0,9.863512049E0
1.227817271E1,7.418572998E-1,4.185296631E-1,9.836345215E0,9.873155854E0
1.228820471E1,7.533833313E-1,4.189787292E-1,9.845476227E0,9.883143819E0
1.229823571E1,7.538323975E-1,4.233197021E-1,9.839338989E0,9.877249344E0
1.230826771E1,7.698490906E-1,4.402345276E-1,9.828112335E0,9.868042670E0
1.231829871E1,7.569758606E-1,4.320016479E-1,9.803862762E0,9.842528280E0
1.232833071E1,7.391629028E-1,4.037104797E-1,9.807904358E0,9.843999789E0
1.233836171E1,7.637118530E-1,3.835025024E-1,9.855056305E0,9.892040474E0
1.234839271E1,7.795788574E-1,3.649411011E-1,9.896819458E0,9.934181425E0
1.235842471E1,7.963439941E-1,3.968247986E-1,9.851314087E0,9.891411574E0
1.236845571E1,7.616162109E-1,4.141886902E-1,9.760303345E0,9.798731189E0
1.237848771E1,7.376660156E-1,4.246669006E-1,9.788145447E0,9.825084448E0
1.238851871E1,7.665559387E-1,3.763174438E-1,9.783355408E0,9.820553236E0
1.239855071E1,8.141569519E-1,3.221301270E-1,9.848919067E0,9.887761433E0
1.240858171E1,8.493338013E-1,3.285667419E-1,9.832453308E0,9.874536043E0
1.241861371E1,8.509803772E-1,3.013233948E-1,9.901759186E0,9.942826478E0
1.242864471E1,8.327183533E-1,3.546125793E-1,9.830657043E0,9.872233174E0
1.243867571E1,7.963439941E-1,3.870950317E-1,9.773625641E0,9.813651945E0
1.244870771E1,7.575746155E-1,3.835025024E-1,9.781110077E0,9.817897321E0
1.245873871E1,7.527845764E-1,4.185296631E-1,9.790241089E0,9.828055366E0
1.246877071E1,7.345225525E-1,4.628375244E-1,9.825118561E0,9.863401882E0
1.247880171E1,7.324269104E-1,4.962181091E-1,9.820328522E0,9.860098066E0
1.248883371E1,7.460485840E-1,5.129832458E-1,9.812844086E0,9.854524309E0
1.249886471E1,7.794291687E-1,5.099894714E-1,9.850266266E0,9.894207629E0
1.250889671E1,7.806266785E-1,4.965174866E-1,9.881551208E0,9.924765081E0
1.251892771E1,7.604187012E-1,4.614903259E-1,9.904902649E0,9.944762763E0
1.252895871E1,7.545808411E-1,4.123924255E-1,9.885143738E0,9.922475824E0
1.253899071E1,7.460485840E-1,3.914360046E-1,9.839638367E0,9.875641439E0
1.254902171E1,7.614665222E-1,3.623963928E-1,9.820178833E0,9.856321561E0
1.255905371E1,7.704478455E-1,3.592529297E-1,9.810898132E0,9.847658337E0
1.256908471E1,8.044271851E-1,3.820056152E-1,9.779912567E0,9.820372763E0
1.257911671E1,7.873626709E-1,3.622467041E-1,9.780361633E0,9.818688116E0
1.258914771E1,7.940986633E-1,3.769161987E-1,9.798024902E0,9.837375183E0
1.259917871E1,7.954458618E-1,3.881428528E-1,9.835596771E0,9.875340644E0
1.260921071E1,7.866142273E-1,3.832031250E-1,9.834848328E0,9.873694760E0
1.261924171E1,7.744894409E-1,3.706292725E-1,9.834099884E0,9.871510547E0
1.262927371E1,7.556286621E-1,3.844006348E-1,9.835297394E0,9.871768502E0
1.263930471E1,7.694000244E-1,4.065545654E-1,9.824968872E0,9.863431267E0
1.264933671E1,7.677534485E-1,4.171824646E-1,9.841135254E0,9.879849678E0
1.265936771E1,7.671546936E-1,4.420307922E-1,9.846074982E0,9.885803462E0
1.266939971E1,7.607180786E-1,4.608915710E-1,9.828262024E0,9.868426797E0
1.267943121E1,7.378157043E-1,4.790039062E-1,9.760902100E0,9.800460528E0
1.268946221E1,7.369175720E-1,4.822970581E-1,9.867181091E0,9.906408060E0
1.269949421E1,7.788304138E-1,4.767585754E-1,9.890382843E0,9.932449262E0
1.270952521E1,7.846682739E-1,4.808001709E-1,9.787397003E0,9.830565253E0
1.271955721E1,7.846682739E-1,4.290078735E-1,9.796677704E0,9.837410538E0
1.272958821E1,7.776329041E-1,4.149371338E-1,9.759405212E0,9.799126280E0
1.273962021E1,7.699987793E-1,3.348536682E-1,9.868977356E0,9.904632207E0
1.274965121E1,8.059240723E-1,2.960842896E-1,9.934391327E0,9.971424700E0
1.275968321E1,8.202941895E-1,3.359014893E-1,9.897567902E0,9.937180824E0
1.276971421E1,8.351133728E-1,3.665876770E-1,9.863289185E0,9.905365940E0
1.277974521E1,8.246351624E-1,3.986210632E-1,9.822573853E0,9.865185198E0
1.278977721E1,8.047265625E-1,4.354444885E-1,9.781708832E0,9.824409622E0
1.279980821E1,7.758366394E-1,4.451742554E-1,9.775870972E0,9.816707995E0
1.280984021E1,7.710466003E-1,4.354444885E-1,9.795330505E0,9.835274499E0
1.281987121E1,7.711962891E-1,4.360432434E-1,9.820777588E0,9.860656665E0
1.282990321E1,7.900570679E-1,4.423301697E-1,9.847122803E0,9.888663896E0
1.283993421E1,7.860154724E-1,4.330494690E-1,9.814191284E0,9.855135855E0
1.284996521E1,7.694000244E-1,3.992198181E-1,9.812095642E0,9.850308307E0
1.285999721E1,7.676037598E-1,3.899391174E-1,9.833351440E0,9.870971006E0
1.287002821E1,7.695497131E-1,4.007167053E-1,9.841584320E0,9.879755188E0
1.288006021E1,7.493417358E-1,3.924838257E-1,9.807305603E0,9.843718798E0
1.289009121E1,7.455995178E-1,3.887416077E-1,9.792935486E0,9.828968619E0
1.290012321E1,7.426057434E-1,4.016148376E-1,9.817634125E0,9.853867138E0
1.291015421E1,7.640112305E-1,4.032614136E-1,9.831405487E0,9.869289072E0
1.292018621E1,7.839198303E-1,4.132905579E-1,9.823322296E0,9.863214502E0
1.293021721E1,7.825726318E-1,4.149371338E-1,9.831854553E0,9.871674463E0
1.294024821E1,7.619155884E-1,4.038601685E-1,9.837243347E0,9.874967092E0
1.295028021E1,7.691006470E-1,4.010160828E-1,9.844877472E0,9.883012807E0
1.296031121E1,7.777825928E-1,3.815565491E-1,9.863438873E0,9.901411898E0
1.297034321E1,7.580236816E-1,3.839515686E-1,9.850266266E0,9.886848043E0
1.298037421E1,7.406597900E-1,4.158352661E-1,9.796078949E0,9.832835739E0
1.299040621E1,7.297325134E-1,4.234693909E-1,9.782756653E0,9.819071422E0
1.300043721E1,7.542814636E-1,4.189787292E-1,9.818382568E0,9.856222398E0
1.301046921E1,7.915539551E-1,4.215234375E-1,9.839189301E0,9.879973976E0
1.302050021E1,7.921527100E-1,4.415817261E-1,9.826465759E0,9.868228294E0
1.303053121E1,7.911048889E-1,4.556524658E-1,9.796528015E0,9.838974909E0
1.304056321E1,7.649093628E-1,4.553530884E-1,9.772727509E0,9.813186828E0
1.305059421E1,7.640112305E-1,4.105961609E-1,9.792187042E0,9.830525390E0
1.306062621E1,7.649093628E-1,3.800596619E-1,9.852361908E0,9.889315793E0
1.307065721E1,7.909552002E-1,3.736230469E-1,9.894125061E0,9.932719418E0
1.308068921E1,7.890092468E-1,3.960763550E-1,9.811646576E0,9.851285226E0
1.309072021E1,7.710466003E-1,4.150868225E-1,9.774074707E0,9.813223034E0
1.310075121E1,7.544311523E-1,4.108955383E-1,9.806108093E0,9.843665854E0
1.311078321E1,7.839198303E-1,3.758683777E-1,9.825717316E0,9.864103006E0
1.312081421E1,8.081694031E-1,3.400927734E-1,9.814939728E0,9.854026727E0
1.313084621E1,8.047265625E-1,3.302133179E-1,9.826615448E0,9.865039120E0
1.314087721E1,8.125103760E-1,2.948867798E-1,9.895921326E0,9.933599056E0
1.315090921E1,7.978408813E-1,3.357518005E-1,9.798174591E0,9.836335937E0
1.316094021E1,7.572752380E-1,3.550616455E-1,9.762997742E0,9.798758057E0
1.317097221E1,7.409591675E-1,3.863465881E-1,9.813891907E0,9.849403968E0
1.318100321E1,7.455995178E-1,4.182302856E-1,9.837842102E0,9.874916326E0
1.319103421E1,7.216493225E-1,4.845423889E-1,9.826615448E0,9.864985060E0
1.320106621E1,7.411088562E-1,5.321434021E-1,9.816137238E0,9.858446592E0
1.321109721E1,7.435038757E-1,5.340893555E-1,9.833351440E0,9.875872114E0
1.322112921E1,7.680528259E-1,5.260061646E-1,9.874216461E0,9.918000723E0
1.323116021E1,7.735913086E-1,4.864883423E-1,9.892777863E0,9.934896490E0
1.324119221E1,7.668553162E-1,4.360432434E-1,9.899064789E0,9.938293841E0
1.325122321E1,7.676037598E-1,3.790118408E-1,9.899364166E0,9.936311006E0
1.326125521E1,7.779322815E-1,3.451821899E-1,9.860295410E0,9.896956853E0
1.327128621E1,7.946974182E-1,3.415896606E-1,9.837542725E0,9.875498688E0
1.328131721E1,7.830216980E-1,3.348536682E-1,9.799821167E0,9.836754793E0
1.329134921E1,7.881111145E-1,3.424877930E-1,9.765841827E0,9.803575043E0
1.330138021E1,7.996371460E-1,3.643423462E-1,9.792486420E0,9.831833765E0
1.331141221E1,7.958949280E-1,3.588038635E-1,9.821526031E0,9.860251647E0
1.332144321E1,7.893086243E-1,3.589535522E-1,9.848020935E0,9.886120174E0
1.333147521E1,7.779322815E-1,3.685336304E-1,9.848619690E0,9.886167380E0
1.334150621E1,7.677534485E-1,3.653901672E-1,9.847571869E0,9.884210998E0
1.335153721E1,7.658074951E-1,3.667373657E-1,9.846973114E0,9.883513390E0
1.336156921E1,7.571255493E-1,3.875440979E-1,9.818681946E0,9.855452535E0
1.337160021E1,7.637118530E-1,4.203259277E-1,9.846374359E0,9.884888350E0
1.338163221E1,7.545808411E-1,4.564009094E-1,9.854756927E0,9.894136048E0
1.339166321E1,7.505392456E-1,4.966671753E-1,9.811945953E0,9.853135076E0
1.340169521E1,7.204518127E-1,5.098397827E-1,9.760752411E0,9.800575241E0
1.341172621E1,7.131170654E-1,4.897814941E-1,9.864337006E0,9.902200080E0
1.342175821E1,7.602690125E-1,4.891827393E-1,9.877659302E0,9.918944601E0
1.343178921E1,7.535330200E-1,4.845423889E-1,9.770631866E0,9.811617624E0
1.344182021E1,7.664062500E-1,4.266128540E-1,9.760902100E0,9.800234021E0
1.345185221E1,7.803273010E-1,3.438349915E-1,9.821975098E0,9.858921240E0
1.346188321E1,8.280780029E-1,2.906954956E-1,9.894125061E0,9.932971749E0
1.347191521E1,8.581654358E-1,2.936892700E-1,9.916877747E0,9.958271213E0
1.348194621E1,8.768765259E-1,2.869532776E-1,9.905052338E0,9.947930259E0
1.349197821E1,8.916957092E-1,3.242257690E-1,9.885293427E0,9.930723524E0
1.350200921E1,9.018745422E-1,3.664379883E-1,9.832303619E0,9.880376964E0
1.351204021E1,8.623567200E-1,3.921844482E-1,9.778864746E0,9.824645718E0
1.352207221E1,8.247848511E-1,4.052073669E-1,9.743837585E0,9.787074841E0
1.353210321E1,7.903564453E-1,3.944297791E-1,9.749825134E0,9.789756295E0
1.354213521E1,7.885601807E-1,3.893403625E-1,9.810598755E0,9.849937107E0
1.355216621E1,8.152047729E-1,3.808081055E-1,9.838590546E0,9.879647644E0
1.356219821E1,8.053253174E-1,3.820056152E-1,9.802665253E0,9.843105364E0
1.357222921E1,7.806266785E-1,3.712280273E-1,9.819430389E0,9.857403382E0
1.358226121E1,7.809260559E-1,3.535647583E-1,9.849368134E0,9.886602357E0
1.359229221E1,7.819738770E-1,3.519181824E-1,9.820029144E0,9.857398336E0
1.360232321E1,7.629634094E-1,3.653901672E-1,9.807604980E0,9.844020449E0
1.361235521E1,7.460485840E-1,3.658392334E-1,9.796977081E0,9.832150668E0
1.362238621E1,7.599696350E-1,3.573069763E-1,9.839788055E0,9.875558268E0
1.363241821E1,7.819738770E-1,3.688330078E-1,9.838889923E0,9.876804941E0
1.364244921E1,8.104147339E-1,3.689826965E-1,9.857750702E0,9.897887106E0
1.365248121E1,7.946974182E-1,3.908372498E-1,9.838889923E0,9.878666543E0
1.366251221E1,7.926017761E-1,3.935316467E-1,9.841734009E0,9.881437802E0
1.367254421E1,7.908055115E-1,3.908372498E-1,9.826765137E0,9.866277929E0
1.368257433E1,7.933502197E-1,3.863465881E-1,9.819729767E0,9.859298198E0
1.369260533E1,7.948471069E-1,4.001179504E-1,9.808203735E0,9.848489062E0
1.370263733E1,7.882608032E-1,4.029620361E-1,9.820927277E0,9.860747744E0
1.371266833E1,7.792794800E-1,3.972738647E-1,9.832453308E0,9.871283660E0
1.372270033E1,7.917036438E-1,4.053570557E-1,9.848470001E0,9.888552491E0
1.373273133E1,8.027806091E-1,3.888912964E-1,9.823471985E0,9.863888431E0
1.374276333E1,8.120613098E-1,3.854484558E-1,9.843530273E0,9.884487965E0
1.375279433E1,8.089178467E-1,3.689826965E-1,9.830357666E0,9.870482671E0
1.376282633E1,8.198451233E-1,3.620970154E-1,9.836345215E0,9.877092055E0
1.377285733E1,8.385562134E-1,3.585044861E-1,9.835896149E0,9.878084583E0
1.378288833E1,8.306227112E-1,3.790118408E-1,9.837393036E0,9.879670329E0
1.379292033E1,8.379574585E-1,3.683839417E-1,9.830657043E0,9.873180710E0
1.380295133E1,8.250842285E-1,3.827540588E-1,9.817185059E0,9.859228526E0
1.381298333E1,8.116122437E-1,3.818559265E-1,9.798923035E0,9.839889279E0
1.382301433E1,8.087681580E-1,3.823049927E-1,9.814939728E0,9.855623009E0
1.383304633E1,8.184979248E-1,3.803590393E-1,9.855804749E0,9.897044968E0
1.384307733E1,8.202941895E-1,3.894900513E-1,9.848020935E0,9.889797844E0
1.385310833E1,8.114625549E-1,4.067042542E-1,9.804461517E0,9.846387433E0
1.386314033E1,7.807763672E-1,4.216731262E-1,9.789642334E0,9.829777057E0
1.387317133E1,7.699987793E-1,4.261637878E-1,9.768835602E0,9.808397561E0
1.388320333E1,7.640112305E-1,3.918850708E-1,9.790690155E0,9.828270488E0
1.389323433E1,7.729925537E-1,3.629951477E-1,9.863139496E0,9.900040590E0
1.390326633E1,7.833210754E-1,3.492237854E-1,9.900112610E0,9.937191698E0
1.391329733E1,7.774832153E-1,3.821553040E-1,9.857301636E0,9.895297791E0
1.392332933E1,7.607180786E-1,3.969744873E-1,9.806706848E0,9.844174924E0
1.393336033E1,7.629634094E-1,3.983216858E-1,9.832453308E0,9.870051235E0
1.394339133E1,8.140072632E-1,3.213816833E-1,9.843679962E0,9.882506221E0
1.395342333E1,8.192463684E-1,3.091072083E-1,9.770781555E0,9.809938026E0
1.396345433E1,8.385562134E-1,2.658471680E-1,9.831854553E0,9.871130391E0
1.397348633E1,8.466394043E-1,2.859054565E-1,9.850266266E0,9.890717149E0
1.398351733E1,8.247848511E-1,3.373983765E-1,9.740843811E0,9.781520632E0
1.399354933E1,7.785310364E-1,3.351530457E-1,9.775421906E0,9.812100263E0
1.400358033E1,7.743397522E-1,3.686833191E-1,9.823322296E0,9.860689143E0
1.401361133E1,7.747888184E-1,4.351451111E-1,9.848170624E0,9.888180501E0
1.402364333E1,7.897576904E-1,4.857398987E-1,9.802216187E0,9.845968852E0
1.403367433E1,7.930508423E-1,5.225633240E-1,9.787696381E0,9.833666788E0
1.404370633E1,8.119116211E-1,5.200186157E-1,9.808054047E0,9.855330741E0
1.405373733E1,8.261320496E-1,4.770579529E-1,9.843530273E0,9.889649473E0
1.406376933E1,8.213420105E-1,4.254153442E-1,9.890682220E0,9.933839927E0
1.407380033E1,8.065228271E-1,3.737727356E-1,9.903705139E0,9.943518523E0
1.408383233E1,8.081694031E-1,3.345542908E-1,9.890981598E0,9.929581125E0
1.409386333E1,8.090675354E-1,3.121009827E-1,9.876312103E0,9.914309762E0
1.410389433E1,8.258326721E-1,3.056643677E-1,9.852960663E0,9.892232515E0
1.411392633E1,8.273295593E-1,3.246748352E-1,9.815239105E0,9.855394799E0
1.412395733E1,8.384065247E-1,3.251239014E-1,9.765243073E0,9.806559199E0
1.413398933E1,8.104147339E-1,3.571572876E-1,9.741442566E0,9.781617281E0
1.414402033E1,7.987390137E-1,3.671864319E-1,9.761201477E0,9.800707330E0
1.415405233E1,8.017327881E-1,3.610491943E-1,9.792037354E0,9.831435679E0
1.416408333E1,8.096662903E-1,3.558100891E-1,9.819131012E0,9.858878950E0
1.417411533E1,8.340655518E-1,3.550616455E-1,9.858199768E0,9.899789734E0
1.418414633E1,8.095166016E-1,3.597019958E-1,9.864935760E0,9.904628222E0
1.419417733E1,8.036787415E-1,3.830534363E-1,9.858798523E0,9.898915990E0
1.420420933E1,7.831713867E-1,4.070036316E-1,9.838141479E0,9.877653423E0
1.421424033E1,7.789801025E-1,4.212240601E-1,9.823172607E0,9.863009672E0
1.422427233E1,7.646099854E-1,4.366419983E-1,9.783205719E0,9.822749045E0
1.423430333E1,7.488926697E-1,4.418811035E-1,9.748178558E0,9.786883280E0
1.424433533E1,7.779322815E-1,4.243675232E-1,9.913584595E0,9.953111370E0
1.425436633E1,8.023315430E-1,4.468208313E-1,9.773475952E0,9.816527744E0
1.426439733E1,8.149053955E-1,4.080514526E-1,9.771529999E0,9.813937808E0
1.427442933E1,8.310717773E-1,3.797602844E-1,9.799372101E0,9.841879482E0
1.428446033E1,7.985893250E-1,3.367996216E-1,9.828411713E0,9.866552371E0
1.429449233E1,8.232879639E-1,2.909948730E-1,9.903705139E0,9.942125355E0
1.430452333E1,8.797206116E-1,2.900967407E-1,9.921368408E0,9.964517829E0
1.431455533E1,9.050180054E-1,3.267704773E-1,9.893077240E0,9.939759243E0
1.432458633E1,9.077124023E-1,3.628454590E-1,9.915530548E0,9.963600990E0
1.433461833E1,8.852590942E-1,3.683839417E-1,9.873468018E0,9.919917393E0
1.434464933E1,8.322692871E-1,4.031117249E-1,9.808503113E0,9.852000028E0
1.435468033E1,7.834707642E-1,3.903881836E-1,9.778116302E0,9.817218944E0
1.436471233E1,7.542814636E-1,3.806584167E-1,9.806856537E0,9.843184266E0
1.437474333E1,7.804769897E-1,3.686833191E-1,9.860445099E0,9.898153831E0
1.438477533E1,8.170010376E-1,3.465293884E-1,9.867031403E0,9.906860351E0
1.439480633E1,8.041278076E-1,3.435356140E-1,9.836644592E0,9.875434931E0
1.440483833E1,7.825726318E-1,3.429368591E-1,9.822873230E0,9.859962683E0
1.441486933E1,7.806266785E-1,3.373983765E-1,9.823322296E0,9.860064737E0
1.442490133E1,7.821235657E-1,3.311114502E-1,9.821825409E0,9.858478910E0
1.443493233E1,7.731422424E-1,3.487747192E-1,9.796827393E0,9.833474447E0
1.444496333E1,7.628137207E-1,3.330574036E-1,9.778864746E0,9.814224765E0
1.445499533E1,7.679031372E-1,3.182382202E-1,9.785900116E0,9.821140050E0
1.446502633E1,7.875123596E-1,3.252735901E-1,9.813143463E0,9.850064124E0
1.447505833E1,8.015830994E-1,3.546125793E-1,9.815538483E0,9.854596960E0
1.448508933E1,8.059240723E-1,3.487747192E-1,9.805958405E0,9.845200742E0
1.449512133E1,7.927514648E-1,3.526666260E-1,9.806108093E0,9.844418955E0
1.450515233E1,8.117619324E-1,3.484753418E-1,9.823771362E0,9.863410986E0
1.451518433E1,8.274792480E-1,3.418890381E-1,9.842033386E0,9.882673282E0
1.452521533E1,8.208929443E-1,3.296145630E-1,9.854158173E0,9.893783112E0
1.453524633E1,7.973918152E-1,3.239263916E-1,9.861792297E0,9.899278223E0
1.454527833E1,7.990383911E-1,3.324586487E-1,9.849517822E0,9.887466432E0
1.455530933E1,8.066725159E-1,3.153941345E-1,9.850715332E0,9.888720168E0
1.456534133E1,8.053253174E-1,3.294648743E-1,9.870923309E0,9.909198906E0
1.457537233E1,8.162525940E-1,3.426374817E-1,9.842332764E0,9.882063700E0
1.458540433E1,8.189469910E-1,3.674858093E-1,9.825417938E0,9.866334560E0
1.459543533E1,8.282276917E-1,3.613485718E-1,9.803264008E0,9.844821944E0
1.460546733E1,8.237370300E-1,3.665876770E-1,9.801617432E0,9.842999212E0
1.461549833E1,8.093669128E-1,3.540138245E-1,9.795180817E0,9.834936086E0
1.462552933E1,8.044271851E-1,3.643423462E-1,9.818382568E0,9.858016266E0
1.463556133E1,8.087681580E-1,3.704795837E-1,9.848320312E0,9.888416154E0
1.464559233E1,8.129594421E-1,3.845503235E-1,9.832004242E0,9.873048639E0
1.465562433E1,8.110134888E-1,3.917353821E-1,9.845625916E0,9.886736021E0
1.466565533E1,7.893086243E-1,4.070036316E-1,9.793384552E0,9.833567056E0
1.467568733E1,7.694000244E-1,3.800596619E-1,9.771230621E0,9.808841399E0
1.468571846E1,7.827223206E-1,3.373983765E-1,9.827962646E0,9.864853860E0
1.469574946E1,8.021818542E-1,3.324586487E-1,9.885892181E0,9.923955295E0
1.470578146E1,8.057743835E-1,3.360511780E-1,9.874815216E0,9.913333360E0
1.471581246E1,7.848179626E-1,3.600013733E-1,9.819729767E0,9.857618014E0
1.472584446E1,7.830216980E-1,3.570075989E-1,9.852661285E0,9.890172486E0
1.473587546E1,8.113128662E-1,3.267704773E-1,9.844278717E0,9.883057774E0
1.474590746E1,8.041278076E-1,3.040177917E-1,9.790540466E0,9.828210975E0
1.475593846E1,7.967930603E-1,2.800675964E-1,9.773625641E0,9.810049705E0
1.476597046E1,8.381071472E-1,2.565664673E-1,9.806557159E0,9.845649459E0
1.477600146E1,8.364605713E-1,2.824626160E-1,9.764344940E0,9.804176841E0
1.478603246E1,8.002359009E-1,3.049159241E-1,9.729916534E0,9.767529216E0
1.479606446E1,7.884104919E-1,3.162922668E-1,9.791438599E0,9.828219662E0
1.480609546E1,7.764353943E-1,3.567082214E-1,9.843230896E0,9.880247322E0
1.481612746E1,7.836204529E-1,4.225712585E-1,9.861492920E0,9.901599370E0
1.482615846E1,7.933502197E-1,4.552033997E-1,9.812993774E0,9.855529490E0
1.483619046E1,8.032296753E-1,4.809498596E-1,9.793384552E0,9.838031900E0
1.484622146E1,8.048762512E-1,4.700225830E-1,9.830806732E0,9.874892810E0
1.485625346E1,8.207432556E-1,4.346960449E-1,9.870174866E0,9.913774862E0
1.486628446E1,8.029302979E-1,3.745211792E-1,9.875114594E0,9.914779443E0
1.487631546E1,7.909552002E-1,3.174897766E-1,9.878707123E0,9.915405403E0
1.488634746E1,8.012837219E-1,2.844085693E-1,9.894574127E0,9.931039271E0
1.489637846E1,8.107141113E-1,2.703378296E-1,9.886790314E0,9.923656716E0
1.490641046E1,8.122109985E-1,2.794688416E-1,9.855355682E0,9.892715763E0
1.491644146E1,8.114625549E-1,2.972817993E-1,9.819580078E0,9.857535232E0
1.492647346E1,8.017327881E-1,3.156935120E-1,9.786349182E0,9.824208272E0
1.493650446E1,7.958949280E-1,3.216810608E-1,9.790390778E0,9.827953959E0
1.494653646E1,8.033793640E-1,3.272195435E-1,9.814939728E0,9.853199120E0
1.495656746E1,8.289761353E-1,3.218307495E-1,9.814939728E0,9.855141720E0
1.496659846E1,8.384065247E-1,3.168910217E-1,9.833351440E0,9.874114946E0
1.497663046E1,8.232879639E-1,3.418890381E-1,9.845775604E0,9.886050194E0
1.498666146E1,7.963439941E-1,3.385958862E-1,9.858798523E0,9.896702443E0
1.499669346E1,7.967930603E-1,3.565585327E-1,9.848170624E0,9.886782986E0
1.500672446E1,7.855664063E-1,3.748205566E-1,9.836644592E0,9.875078828E0
1.501675646E1,7.923023987E-1,3.847000122E-1,9.840835876E0,9.880171453E0
1.502678746E1,7.891589355E-1,3.923341370E-1,9.799072723E0,9.838624098E0
1.503681846E1,7.586224365E-1,4.025129700E-1,9.743538208E0,9.781311850E0
1.504685046E1,7.896080017E-1,3.836521912E-1,9.956994324E0,9.995619329E0
1.505688146E1,8.387059021E-1,3.992198181E-1,9.807006226E0,9.850897175E0
1.506691346E1,8.208929443E-1,3.613485718E-1,9.750872955E0,9.792035611E0
1.507694446E1,8.271798706E-1,3.403921509E-1,9.804162140E0,9.844881341E0
1.508697646E1,8.223898315E-1,2.787203979E-1,9.868079224E0,9.906210055E0
1.509700746E1,8.517288208E-1,2.597099304E-1,9.883796539E0,9.923826140E0
1.510703946E1,8.607101440E-1,2.754272461E-1,9.869426422E0,9.910714405E0
1.511707046E1,8.795709229E-1,2.995271301E-1,9.887239380E0,9.930803798E0
1.512710146E1,8.887019348E-1,3.255729675E-1,9.867480469E0,9.912767509E0
1.513713346E1,8.544232178E-1,3.534150696E-1,9.822873230E0,9.866295137E0
1.514716446E1,8.026309204E-1,3.727249146E-1,9.771230621E0,9.811222559E0
1.515719646E1,7.674540710E-1,3.700305176E-1,9.765991516E0,9.803086179E0
1.516722746E1,7.607180786E-1,3.496728516E-1,9.817185059E0,9.852821199E0
1.517725946E1,8.418493652E-1,3.180885315E-1,9.882149963E0,9.923042808E0
1.518729046E1,8.572673035E-1,3.336561584E-1,9.866282959E0,9.909075289E0
1.519732246E1,8.232879639E-1,3.354524231E-1,9.817933502E0,9.858100712E0
1.520735346E1,7.978408813E-1,3.284170532E-1,9.820927277E0,9.858753491E0
1.521738446E1,8.024812317E-1,3.222798157E-1,9.831704865E0,9.869663670E0
1.522741646E1,7.860154724E-1,3.279679871E-1,9.815987549E0,9.852867343E0
1.523744746E1,7.762857056E-1,3.119512939E-1,9.794132996E0,9.829800315E0
1.524747946E1,7.520361328E-1,3.026705933E-1,9.804760895E0,9.838216507E0
1.525751046E1,7.664062500E-1,3.230282593E-1,9.812544708E0,9.847728644E0
1.526754246E1,8.039781189E-1,3.225791931E-1,9.822274475E0,9.860401311E0
1.527757346E1,8.087681580E-1,3.150947571E-1,9.830357666E0,9.868602864E0
1.528760546E1,8.158035278E-1,3.456312561E-1,9.836345215E0,9.876167452E0
1.529763646E1,8.171507263E-1,3.399430847E-1,9.815837860E0,9.855656726E0
1.530766746E1,8.063731384E-1,3.414399719E-1,9.811945953E0,9.850944233E0
1.531769946E1,7.963439941E-1,3.095562744E-1,9.807155914E0,9.844302716E0
1.532773046E1,7.967930603E-1,3.182382202E-1,9.821675720E0,9.859080520E0
1.533776246E1,7.976911926E-1,3.246748352E-1,9.835746460E0,9.873380040E0
1.534779346E1,8.024812317E-1,3.197351074E-1,9.849068756E0,9.886878275E0
1.535782546E1,8.023315430E-1,3.092568970E-1,9.846374359E0,9.883848631E0
1.536785646E1,8.008346558E-1,3.103047180E-1,9.853559418E0,9.890917974E0
1.537788846E1,8.045768738E-1,3.195854187E-1,9.847721558E0,9.885701728E0
1.538791946E1,7.967930603E-1,3.049159241E-1,9.831255798E0,9.868203660E0
1.539795046E1,8.039781189E-1,3.062631226E-1,9.824819183E0,9.862416028E0
1.540798246E1,8.129594421E-1,3.171903992E-1,9.822274475E0,9.860962867E0
1.541801346E1,8.122109985E-1,2.995271301E-1,9.826765137E0,9.864822161E0
1.542804546E1,8.178991699E-1,2.974314880E-1,9.837243347E0,9.875666115E0
1.543807646E1,8.173004150E-1,2.911445618E-1,9.813742218E0,9.852019156E0
1.544810846E1,8.168513489E-1,3.043171692E-1,9.814041595E0,9.852678189E0
1.545813946E1,7.997868347E-1,3.085084534E-1,9.815688171E0,9.853048804E0
1.546817146E1,8.104147339E-1,3.177891541E-1,9.817783813E0,9.856299559E0
1.547820246E1,8.331674194E-1,3.116519165E-1,9.849218445E0,9.889307298E0
1.548823346E1,8.348139954E-1,3.418890381E-1,9.843979340E0,9.885227957E0
1.549826546E1,8.238867188E-1,3.493734741E-1,9.833501129E0,9.874137715E0
1.550829646E1,7.915539551E-1,3.468287659E-1,9.795629883E0,9.833677474E0
1.551832846E1,7.963439941E-1,3.124003601E-1,9.795779572E0,9.833059298E0
1.552835946E1,8.153544617E-1,2.803669739E-1,9.853559418E0,9.891210327E0
1.553839146E1,8.488847351E-1,2.573149109E-1,9.903705139E0,9.943349121E0
1.554842246E1,8.460406494E-1,2.845582581E-1,9.894723816E0,9.934904004E0
1.555845446E1,8.205935669E-1,2.932402039E-1,9.824070740E0,9.862643130E0
1.556848546E1,8.101153564E-1,3.076103210E-1,9.840087433E0,9.878169450E0
1.557851646E1,8.192463684E-1,2.754272461E-1,9.839788055E0,9.877674512E0
1.558854846E1,8.364605713E-1,2.639012146E-1,9.776619415E0,9.815884949E0
1.559857946E1,8.312214661E-1,2.517764282E-1,9.740394745E0,9.779039333E0
1.560861146E1,8.586145020E-1,2.353106689E-1,9.800569611E0,9.840922450E0
1.561864246E1,8.629554749E-1,2.688409424E-1,9.722132721E0,9.764058185E0
1.562867446E1,8.122109985E-1,2.742297363E-1,9.716145172E0,9.753889771E0
1.563870546E1,7.831713867E-1,2.860551453E-1,9.784852295E0,9.820311573E0
1.564873646E1,7.954458618E-1,3.341052246E-1,9.841284943E0,9.879030810E0
1.565876846E1,8.132588196E-1,3.844006348E-1,9.864786072E0,9.905713402E0
1.566879946E1,8.198451233E-1,4.288581848E-1,9.821226654E0,9.864712786E0
1.567883108E1,8.273295593E-1,4.403842163E-1,9.810299377E0,9.854967597E0
1.568886208E1,8.424481201E-1,4.213737488E-1,9.851314087E0,9.896244940E0
1.569889408E1,8.282276917E-1,3.700305176E-1,9.911189575E0,9.952615862E0
1.570892508E1,8.186476135E-1,3.155438232E-1,9.908794556E0,9.947560574E0
1.571895708E1,8.083190918E-1,2.603086853E-1,9.920320587E0,9.956600872E0
1.572898808E1,8.126600647E-1,2.314187622E-1,9.917626190E0,9.953556162E0
1.573901908E1,8.367599487E-1,2.243833923E-1,9.875863037E0,9.913787664E0
1.574905108E1,8.333171082E-1,2.489323425E-1,9.813442841E0,9.851905658E0
1.575908208E1,8.282276917E-1,2.556683350E-1,9.775721283E0,9.814074282E0
1.576911408E1,8.385562134E-1,2.680924988E-1,9.757010193E0,9.796647284E0
1.577914508E1,8.460406494E-1,2.718347168E-1,9.775272217E0,9.815580768E0
1.578917708E1,8.631051636E-1,2.942880249E-1,9.827812958E0,9.870028546E0
1.579920808E1,8.541238403E-1,2.733316040E-1,9.837393036E0,9.878185028E0
1.580924008E1,8.562194824E-1,2.772235107E-1,9.840985565E0,9.882052498E0
1.581927108E1,8.541238403E-1,2.968327332E-1,9.847571869E0,9.888999389E0
1.582930208E1,8.249345398E-1,3.053649902E-1,9.850565643E0,9.889762801E0
1.583933408E1,7.958949280E-1,3.227288818E-1,9.829908600E0,9.867355560E0
1.584936508E1,7.923023987E-1,3.351530457E-1,9.838291168E0,9.875831295E0
1.585939708E1,7.909552002E-1,3.543132019E-1,9.837842102E0,9.875944775E0
1.586942808E1,7.798782349E-1,3.776646423E-1,9.805659027E0,9.843870661E0
1.587946008E1,7.506889343E-1,3.824546814E-1,9.727970581E0,9.764385136E0
1.588949108E1,7.753875732E-1,3.727249146E-1,9.923314362E0,9.960538021E0
1.589952308E1,8.322692871E-1,3.707789612E-1,9.863588562E0,9.905580676E0
1.590955408E1,8.334667969E-1,3.333567810E-1,9.748328247E0,9.789570841E0
1.591958508E1,8.184979248E-1,2.939886475E-1,9.790989532E0,9.829539369E0
1.592961708E1,8.228388977E-1,2.188449097E-1,9.906399536E0,9.942922544E0
1.593964808E1,8.617579651E-1,2.101629639E-1,9.870623932E0,9.910399188E0
1.594968008E1,8.611592102E-1,2.291734314E-1,9.840237122E0,9.880505162E0
1.595971108E1,8.819659424E-1,2.395019531E-1,9.863289185E0,9.905538786E0
1.596974308E1,8.888516235E-1,2.835104370E-1,9.868228912E0,9.912233716E0
1.597977408E1,8.765771484E-1,3.227288818E-1,9.799222412E0,9.843642685E0
1.598980608E1,7.999365234E-1,3.475772095E-1,9.751920776E0,9.790846091E0
1.599983708E1,7.497908020E-1,3.514691162E-1,9.773625641E0,9.808642870E0
1.600986808E1,7.732919312E-1,3.177891541E-1,9.818083191E0,9.853614966E0
1.601990008E1,8.131091309E-1,2.815644836E-1,9.885143738E0,9.922524464E0
1.602993108E1,8.408015442E-1,2.891986084E-1,9.907447357E0,9.947265765E0
1.603996308E1,8.340655518E-1,2.860551453E-1,9.857151947E0,9.896511375E0
1.604999408E1,8.086184692E-1,2.887495422E-1,9.823471985E0,9.860925006E0
1.606002608E1,7.902067566E-1,2.903961182E-1,9.793384552E0,9.829503426E0
1.607005708E1,7.852670288E-1,2.920426941E-1,9.781110077E0,9.816926585E0
1.608008908E1,7.723937988E-1,2.986289978E-1,9.753567352E0,9.788659130E0
1.609012008E1,7.854167175E-1,2.905458069E-1,9.765692139E0,9.801532494E0
1.610015108E1,7.939489746E-1,2.947370911E-1,9.804162140E0,9.840671735E0
1.611018308E1,8.195457458E-1,2.933898926E-1,9.838440857E0,9.876874574E0
1.612021408E1,8.409512329E-1,3.038681030E-1,9.860894165E0,9.901351854E0
1.613024608E1,8.289761353E-1,2.806663513E-1,9.850415955E0,9.889219864E0
1.614027708E1,8.521778870E-1,2.885998535E-1,9.858948212E0,9.899917013E0
1.615030908E1,8.309220886E-1,2.874023438E-1,9.832153931E0,9.871387063E0
1.616034008E1,8.150550842E-1,2.914439392E-1,9.804311829E0,9.842448110E0
1.617037208E1,7.985893250E-1,3.041674805E-1,9.815388794E0,9.852518457E0
1.618040308E1,8.134085083E-1,3.082090759E-1,9.800120544E0,9.838647718E0
1.619043408E1,8.060737610E-1,3.089575195E-1,9.813592529E0,9.851487603E0
1.620046608E1,7.837701416E-1,2.933898926E-1,9.843081207E0,9.878594076E0
1.621049708E1,7.828720093E-1,3.047662354E-1,9.823322296E0,9.859180086E0
1.622052908E1,7.906558228E-1,3.008743286E-1,9.828112335E0,9.864454068E0
1.623056008E1,8.017327881E-1,2.929408264E-1,9.820478210E0,9.857503846E0
1.624059208E1,7.994874573E-1,2.800675964E-1,9.822274475E0,9.858736933E0
1.625062308E1,8.340655518E-1,2.779719543E-1,9.826914825E0,9.866163831E0
1.626065508E1,8.452922058E-1,2.938389587E-1,9.831854553E0,9.872498377E0
1.627068608E1,8.416996765E-1,2.938389587E-1,9.844727783E0,9.885012130E0
1.628071708E1,8.343649292E-1,3.228785706E-1,9.835447083E0,9.876053600E0
1.629074908E1,8.309220886E-1,3.412902832E-1,9.828112335E0,9.869078105E0
1.630078008E1,8.137078857E-1,3.341052246E-1,9.821376343E0,9.860688622E0
1.631081208E1,8.152047729E-1,3.336561584E-1,9.847422180E0,9.886739040E0
1.632084308E1,8.167016602E-1,3.359014893E-1,9.878407745E0,9.917800714E0
1.633087508E1,8.378077698E-1,3.387455750E-1,9.865684204E0,9.906987193E0
1.634090608E1,8.189469910E-1,3.532653809E-1,9.831106110E0,9.871480028E0
1.635093708E1,8.149053955E-1,3.448828125E-1,9.807455292E0,9.847293753E0
1.636096908E1,8.057743835E-1,3.116519165E-1,9.795629883E0,9.833654665E0
1.637100008E1,8.201445007E-1,2.782713318E-1,9.842183075E0,9.880214553E0
1.638103208E1,8.208929443E-1,2.700384521E-1,9.893077240E0,9.930748374E0
1.639106308E1,8.325686646E-1,2.839595032E-1,9.861642609E0,9.900797873E0
1.640109508E1,7.827223206E-1,3.100053406E-1,9.798773346E0,9.834872476E0
1.641112608E1,7.770341492E-1,3.014730835E-1,9.817634125E0,9.852949198E0
1.642115808E1,8.119116211E-1,2.962339783E-1,9.856253815E0,9.894073696E0
1.643118908E1,8.288264465E-1,2.767744446E-1,9.775421906E0,9.814399156E0
1.644122008E1,8.170010376E-1,2.619552612E-1,9.764644318E0,9.802264529E0
1.645125208E1,8.445437622E-1,2.652484131E-1,9.815987549E0,9.855821754E0
1.646128308E1,8.231382751E-1,2.734812927E-1,9.749825134E0,9.788331767E0
1.647131508E1,8.104147339E-1,2.832110596E-1,9.776170349E0,9.813790666E0
1.648134608E1,8.024812317E-1,2.897973633E-1,9.832153931E0,9.869103787E0
1.649137808E1,7.955955505E-1,3.369493103E-1,9.858050079E0,9.895840464E0
1.650140908E1,7.984396362E-1,3.947291565E-1,9.852212219E0,9.892391145E0
1.651144108E1,7.765850830E-1,4.270619202E-1,9.811347198E0,9.851294337E0
1.652147208E1,7.785310364E-1,4.348457336E-1,9.803413696E0,9.843887519E0
1.653150408E1,7.984396362E-1,4.140390015E-1,9.842781830E0,9.883789167E0
1.654153508E1,8.208929443E-1,3.671864319E-1,9.891280975E0,9.932075837E0
1.655156608E1,8.310717773E-1,3.104544067E-1,9.916728058E0,9.956332538E0
1.656159808E1,8.093669128E-1,2.809657288E-1,9.909093933E0,9.946062493E0
1.657162908E1,7.985893250E-1,2.598596191E-1,9.878856812E0,9.914488582E0
1.658166108E1,8.092172241E-1,2.553689575E-1,9.826016693E0,9.862588396E0
1.659169208E1,8.077203369E-1,2.477348328E-1,9.796078949E0,9.832443616E0
1.660172408E1,8.083190918E-1,2.692900085E-1,9.771979065E0,9.809050500E0
1.661175508E1,8.199948120E-1,2.891986084E-1,9.747729492E0,9.786432321E0
1.662178708E1,8.313711548E-1,2.942880249E-1,9.767787781E0,9.807520664E0
1.663181808E1,8.408015442E-1,3.061134338E-1,9.827663269E0,9.868313838E0
1.664184908E1,8.473878479E-1,3.164419556E-1,9.836943970E0,9.878444632E0
1.665188108E1,8.485853577E-1,3.239263916E-1,9.847272491E0,9.889074827E0
1.666191208E1,8.346643066E-1,3.204835510E-1,9.845326538E0,9.885839815E0
1.667194408E1,7.934999084E-1,3.333567810E-1,9.853260040E0,9.890778648E0
