"Time (s)","Acceleration x (m/s^2)","Acceleration y (m/s^2)","Acceleration z (m/s^2)","Absolute acceleration (m/s^2)"
-4.702082952E-4,1.368154907E0,-7.807763672E-1,1.016236725E1,1.028373316E1
9.561791667E-3,1.373693390E0,-7.373666382E-1,9.935738525E0,1.005731789E1
1.959279168E-2,1.345551910E0,-6.147715759E-1,9.656868439E0,9.769522101E0
2.962379169E-2,1.325044556E0,-4.770579529E-1,9.378896484E0,9.484040628E0
3.965579171E-2,1.321751404E0,-3.755690002E-1,9.193282471E0,9.295403242E0
4.968679167E-2,1.373992767E0,-3.707789612E-1,9.120384064E0,9.230749625E0
5.971779168E-2,1.436862030E0,-3.951782227E-1,9.131910095E0,9.252703405E0
6.974979170E-2,1.445244598E0,-4.315525818E-1,9.257648621E0,9.379713618E0
7.978079171E-2,1.424737244E0,-4.731660461E-1,9.453591156E0,9.572050358E0
8.981179167E-2,1.445543976E0,-5.266049194E-1,9.658065948E0,9.779833741E0
9.984379169E-2,1.467398529E0,-6.188131714E-1,9.840237122E0,9.968272408E0
1.098747917E-1,1.497935028E0,-6.483018494E-1,9.983788605E0,1.011633034E1
1.199057917E-1,1.478176117E0,-6.177653503E-1,1.007120682E1,1.019783533E1
1.299377917E-1,1.419797516E0,-5.545967102E-1,1.006911118E1,1.018383044E1
1.399687917E-1,1.397194519E0,-4.813989258E-1,1.002001328E1,1.012840380E1
1.499997917E-1,1.379830627E0,-4.082011414E-1,9.927355957E0,1.003109949E1
1.600317917E-1,1.333576813E0,-3.625460815E-1,9.824819183E0,9.921539133E0
1.700627917E-1,1.279688873E0,-3.299139404E-1,9.732461243E0,9.821774211E0
1.800937917E-1,1.250499573E0,-3.005749512E-1,9.689650269E0,9.774631288E0
1.901257917E-1,1.248553619E0,-2.796185303E-1,9.674531708E0,9.758772281E0
2.001567917E-1,1.271905060E0,-2.893482971E-1,9.681716766E0,9.769191597E0
2.101887917E-1,1.320104828E0,-3.122506714E-1,9.708511047E0,9.802824287E0
2.202197917E-1,1.374142456E0,-3.257226562E-1,9.760902100E0,9.862533779E0
2.302507917E-1,1.399888916E0,-3.668870544E-1,9.800719299E0,9.906987124E0
2.402827917E-1,1.410367126E0,-3.992198181E-1,9.829459534E0,9.938148048E0
2.503137917E-1,1.425485687E0,-4.200265503E-1,9.873767395E0,9.984974428E0
2.603447917E-1,1.401834869E0,-4.330494690E-1,9.859247589E0,9.967820016E0
2.703767917E-1,1.371897125E0,-4.373904419E-1,9.839788055E0,9.944588533E0
2.804077917E-1,1.364412689E0,-4.441264343E-1,9.803264008E0,9.907716966E0
2.904387917E-1,1.356030121E0,-4.200265503E-1,9.743837585E0,9.846705585E0
3.004707917E-1,1.326990509E0,-4.047583008E-1,9.700427856E0,9.799134334E0
3.105017917E-1,1.333726501E0,-3.965254211E-1,9.687854004E0,9.787265910E0
3.205327917E-1,1.371747437E0,-3.921844482E-1,9.692644043E0,9.797083659E0
3.305647917E-1,1.393751678E0,-3.676354980E-1,9.757010193E0,9.862907660E0
3.405957917E-1,1.384021912E0,-3.597019958E-1,9.756112061E0,9.860356216E0
3.506267917E-1,1.395547943E0,-3.478765869E-1,9.792785797E0,9.897839454E0
3.606587917E-1,1.380579071E0,-3.674858093E-1,9.795929260E0,9.899559307E0
3.706897917E-1,1.379231873E0,-3.785627747E-1,9.755962372E0,9.860243006E0
3.807207917E-1,1.339264984E0,-3.565585327E-1,9.741592255E0,9.839684159E0
3.907527917E-1,1.305135956E0,-3.598516846E-1,9.755513306E0,9.849005684E0
4.007837917E-1,1.318009186E0,-4.116439819E-1,9.796228638E0,9.893062949E0
4.108147917E-1,1.371448059E0,-4.552033997E-1,9.834399261E0,9.939994404E0
4.208467917E-1,1.425335999E0,-4.466711426E-1,9.843230896E0,9.955917451E0
4.308777917E-1,1.443598022E0,-4.390370178E-1,9.829160156E0,9.944300786E0
4.409087917E-1,1.425036621E0,-4.264631653E-1,9.781708832E0,9.894161302E0
4.509407917E-1,1.388961639E0,-4.276606750E-1,9.739047546E0,9.846885558E0
4.609717917E-1,1.334325256E0,-4.269122314E-1,9.709409180E0,9.809959458E0
4.710027917E-1,1.324445801E0,-4.291575623E-1,9.772877197E0,9.871548086E0
4.810347917E-1,1.352138214E0,-4.349954224E-1,9.765392761E0,9.868150513E0
4.910657917E-1,1.369352417E0,-4.095483398E-1,9.759255524E0,9.863362726E0
5.010977917E-1,1.374741211E0,-3.891906738E-1,9.746681671E0,9.850846988E0
5.111287917E-1,1.339264984E0,-3.839515686E-1,9.724527740E0,9.823822539E0
5.211597917E-1,1.325194244E0,-4.135899353E-1,9.718989258E0,9.817634573E0
5.311917917E-1,1.316661987E0,-4.285588074E-1,9.755363617E0,9.853140654E0
5.412227917E-1,1.332678680E0,-4.442761230E-1,9.749675446E0,9.850359640E0
5.512537917E-1,1.332978058E0,-4.608915710E-1,9.761949921E0,9.863311705E0
5.612857917E-1,1.325194244E0,-4.751119995E-1,9.780810699E0,9.881605595E0
5.713167917E-1,1.334924011E0,-4.638853455E-1,9.793683929E0,9.895122871E0
5.813477917E-1,1.347198486E0,-4.710704041E-1,9.798024902E0,9.901421265E0
5.913797917E-1,1.359622650E0,-4.577481079E-1,9.779762878E0,9.884425580E0
6.014107917E-1,1.392105103E0,-4.351451111E-1,9.777667236E0,9.885852744E0
6.114417917E-1,1.381028137E0,-4.263134766E-1,9.754914551E0,9.861406583E0
6.214737917E-1,1.363514557E0,-4.288581848E-1,9.737400970E0,9.841751315E0
6.315047917E-1,1.381626892E0,-4.143383789E-1,9.745783539E0,9.851947317E0
6.415357917E-1,1.361119537E0,-4.126918030E-1,9.755213928E0,9.858354817E0
6.515677917E-1,1.380878448E0,-4.001179504E-1,9.769134979E0,9.874356582E0
6.615987917E-1,1.385069733E0,-3.796105957E-1,9.779164124E0,9.884056522E0
6.716297917E-1,1.365759888E0,-3.773652649E-1,9.775272217E0,9.877431424E0
6.816617917E-1,1.319057007E0,-3.897894287E-1,9.787097626E0,9.883275121E0
6.916927917E-1,1.264720001E0,-3.951782227E-1,9.747130737E0,9.836779967E0
7.017237917E-1,1.221310272E0,-4.297563171E-1,9.718240814E0,9.804105966E0
7.117557917E-1,1.203946381E0,-4.689747620E-1,9.696086884E0,9.781795595E0
7.217867917E-1,1.239422607E0,-5.156776428E-1,9.729766846E0,9.821937421E0
7.318177917E-1,1.292711792E0,-5.218148804E-1,9.757908325E0,9.856985819E0
7.418492500E-1,1.372046814E0,-5.041516113E-1,9.776020660E0,9.884698339E0
7.518802500E-1,1.468745728E0,-4.671784973E-1,9.812694397E0,9.932997588E0
7.619122500E-1,1.520837402E0,-4.299060059E-1,9.807006226E0,9.933535961E0
7.719432500E-1,1.538051605E0,-3.932322693E-1,9.791288910E0,9.919151822E0
7.819742500E-1,1.506916351E0,-3.797602844E-1,9.773326263E0,9.896106356E0
7.920062500E-1,1.435664520E0,-3.772155762E-1,9.747879181E0,9.860252164E0
8.020372500E-1,1.383572845E0,-3.852987671E-1,9.766440582E0,9.871478643E0
8.120682500E-1,1.363963623E0,-4.037104797E-1,9.738748169E0,9.842082849E0
8.221002500E-1,1.342707825E0,-3.903881836E-1,9.734257507E0,9.834176959E0
8.321312500E-1,1.322200470E0,-3.956272888E-1,9.722132721E0,9.819602827E0
8.421622500E-1,1.301543427E0,-3.851490784E-1,9.745783539E0,9.839850196E0
8.521942500E-1,1.297352142E0,-3.989204407E-1,9.792037354E0,9.885659089E0
8.622252500E-1,1.290915527E0,-4.082011414E-1,9.847871246E0,9.940505981E0
8.722562500E-1,1.285826111E0,-4.089495850E-1,9.825567627E0,9.917780384E0
8.822882500E-1,1.312321014E0,-3.769161987E-1,9.802365875E0,9.897001011E0
8.923192500E-1,1.341660004E0,-3.935316467E-1,9.861941986E0,9.960563160E0
9.023502500E-1,1.417552185E0,-4.453239441E-1,9.869576111E0,9.980796572E0
9.123822500E-1,1.451681213E0,-4.499642944E-1,9.838590546E0,9.955285538E0
9.224132500E-1,1.421444092E0,-4.120930481E-1,9.731263733E0,9.843160967E0
9.324442500E-1,1.367855530E0,-4.444258118E-1,9.658365326E0,9.764863738E0
9.424762500E-1,1.357826385E0,-4.755610657E-1,9.672585754E0,9.778996165E0
9.525072500E-1,1.370100861E0,-5.325924683E-1,9.698032837E0,9.808805840E0
9.625382500E-1,1.410816193E0,-5.360353088E-1,9.741292877E0,9.857510999E0
9.725702500E-1,1.434467010E0,-5.059478760E-1,9.780062256E0,9.897640961E0
9.826012500E-1,1.400188293E0,-4.614903259E-1,9.781259766E0,9.891741160E0
9.926332500E-1,1.357377319E0,-4.209246826E-1,9.761949921E0,9.864852611E0
1.002664250E0,1.342707825E0,-3.754193115E-1,9.753567352E0,9.852709275E0
1.012695250E0,1.357976074E0,-3.391946411E-1,9.779463501E0,9.879122349E0
1.022727250E0,1.363514557E0,-3.040177917E-1,9.810149689E0,9.909118814E0
1.032758250E0,1.379830627E0,-2.760260010E-1,9.818532257E0,9.918855710E0
1.042789250E0,1.358275452E0,-2.839595032E-1,9.796677704E0,9.894465081E0
1.052821250E0,1.319805450E0,-2.851570129E-1,9.779164124E0,9.871942661E0
1.062852250E0,1.282083893E0,-3.143463135E-1,9.779164124E0,9.867857096E0
1.072883250E0,1.285377045E0,-3.579057312E-1,9.763446808E0,9.854196275E0
1.082915250E0,1.312770081E0,-3.891906738E-1,9.754315796E0,9.849949813E0
1.092946250E0,1.341959381E0,-4.171824646E-1,9.749525757E0,9.850286730E0
1.102977250E0,1.351539459E0,-4.589456177E-1,9.735604706E0,9.839679313E0
1.113009250E0,1.353335724E0,-4.921765137E-1,9.748627625E0,9.854415044E0
1.123040250E0,1.345252533E0,-5.213658142E-1,9.738448792E0,9.844740299E0
1.133071250E0,1.355431366E0,-5.360353088E-1,9.770033112E0,9.878161521E0
1.143103250E0,1.408271484E0,-5.432203674E-1,9.802964630E0,9.918489425E0
1.153134250E0,1.429826660E0,-4.821473694E-1,9.806557159E0,9.921967229E0
1.163165250E0,1.425186310E0,-4.336482239E-1,9.805659027E0,9.918173005E0
1.173197250E0,1.417851562E0,-3.956272888E-1,9.791438599E0,9.901469277E0
1.183228250E0,1.407073975E0,-3.594026184E-1,9.760752411E0,9.868197152E0
1.193259250E0,1.367256775E0,-3.391946411E-1,9.724078674E0,9.825586504E0
1.203291250E0,1.351689148E0,-3.115022278E-1,9.767638092E0,9.865639923E0
1.213322250E0,1.303938446E0,-3.068618774E-1,9.758656769E0,9.850167593E0
1.223353250E0,1.290316772E0,-2.999761963E-1,9.743837585E0,9.833477207E0
1.233385250E0,1.265917511E0,-3.302133179E-1,9.726922760E0,9.814510398E0
1.243416250E0,1.246158600E0,-3.372486877E-1,9.742789764E0,9.827949955E0
1.253448250E0,1.249002686E0,-3.767665100E-1,9.780211945E0,9.866838723E0
1.263479250E0,1.268761597E0,-4.011657715E-1,9.829459534E0,9.919121165E0
1.273510250E0,1.301244049E0,-4.138893127E-1,9.887239380E0,9.981084259E0
1.283542250E0,1.346150665E0,-4.454736328E-1,9.912686462E0,1.001358683E1
1.293573250E0,1.359173584E0,-4.577481079E-1,9.883347473E0,9.986863544E0
1.303604250E0,1.366508331E0,-4.439767456E-1,9.830207977E0,9.934658990E0
1.313636250E0,1.363664246E0,-4.372407532E-1,9.777367859E0,9.881684163E0
1.323667250E0,1.344504089E0,-4.303550720E-1,9.737550659E0,9.839349042E0
1.333698250E0,1.324595490E0,-4.230203247E-1,9.714199219E0,9.813213840E0
1.343730250E0,1.335373077E0,-4.064048767E-1,9.727970581E0,9.827603869E0
1.353761250E0,1.365310822E0,-3.983216858E-1,9.752519531E0,9.855677096E0
1.363792250E0,1.364712067E0,-3.887416077E-1,9.772428131E0,9.874913197E0
1.373824250E0,1.378633118E0,-3.879931641E-1,9.776769104E0,9.881112391E0
1.383855250E0,1.363364868E0,-4.017645264E-1,9.780361633E0,9.883099320E0
1.393886250E0,1.353186035E0,-3.879931641E-1,9.796528015E0,9.897151726E0
1.403918250E0,1.336720276E0,-3.917353821E-1,9.776320038E0,9.875054997E0
1.413949250E0,1.329984283E0,-3.975732422E-1,9.760453033E0,9.858669591E0
1.423980250E0,1.338516541E0,-4.041595459E-1,9.746232605E0,9.846015512E0
1.434012250E0,1.326391754E0,-4.224215698E-1,9.739795990E0,9.838769283E0
1.444043250E0,1.330732727E0,-4.264631653E-1,9.748178558E0,9.847827457E0
1.454075250E0,1.326541443E0,-4.216731262E-1,9.752968597E0,9.851797647E0
1.464106250E0,1.321452026E0,-4.026626587E-1,9.771829376E0,9.868992959E0
1.474137250E0,1.331181793E0,-3.809577942E-1,9.772577820E0,9.870179890E0
1.484169250E0,1.312171326E0,-3.841012573E-1,9.786049805E0,9.881098023E0
1.494200250E0,1.326541443E0,-3.814068604E-1,9.796378326E0,9.893139628E0
1.504231250E0,1.318607941E0,-3.935316467E-1,9.812544708E0,9.908563352E0
1.514263250E0,1.316362610E0,-3.878434753E-1,9.796977081E0,9.892623161E0
1.524294250E0,1.308578796E0,-4.031117249E-1,9.790540466E0,9.885826225E0
1.534325250E0,1.301094360E0,-4.134402466E-1,9.772577820E0,9.867474683E0
1.544357250E0,1.299597473E0,-4.198768616E-1,9.772128754E0,9.867104466E0
1.554388250E0,1.302890625E0,-4.087998962E-1,9.794731750E0,9.889459611E0
1.564419250E0,1.313069458E0,-4.137396240E-1,9.792636108E0,9.888935930E0
1.574451250E0,1.339564362E0,-3.855981445E-1,9.791438599E0,9.890166249E0
1.584482250E0,1.339564362E0,-4.037104797E-1,9.791288910E0,9.890740789E0
1.594513250E0,1.347198486E0,-4.082011414E-1,9.787397003E0,9.888109629E0
1.604545250E0,1.334624634E0,-4.197271729E-1,9.781110077E0,9.880663346E0
1.614576250E0,1.329385529E0,-4.216731262E-1,9.776320038E0,9.875297848E0
1.624607250E0,1.319955139E0,-4.113446045E-1,9.756411438E0,9.853885026E0
1.634639250E0,1.334175568E0,-3.915856934E-1,9.752519531E0,9.851142117E0
1.644670250E0,1.341210938E0,-3.950285339E-1,9.772877197E0,9.872386897E0
1.654701250E0,1.354533234E0,-3.984713745E-1,9.801018677E0,9.902197070E0
1.664733250E0,1.380429382E0,-3.784130859E-1,9.805808716E0,9.909725845E0
1.674764250E0,1.368304596E0,-3.468287659E-1,9.800569611E0,9.901702498E0
1.684796250E0,1.347348175E0,-3.100053406E-1,9.766290894E0,9.863665051E0
1.694827250E0,1.310973816E0,-3.233276367E-1,9.742191010E0,9.835317929E0
1.704858250E0,1.287772064E0,-3.528163147E-1,9.765841827E0,9.856698374E0
1.714890250E0,1.294508057E0,-3.760180664E-1,9.777367859E0,9.869856278E0
1.724921250E0,1.287472687E0,-3.715274048E-1,9.746981049E0,9.838661397E0
1.734952250E0,1.297052765E0,-3.656895447E-1,9.773026886E0,9.865501976E0
1.744984500E0,1.326391754E0,-4.225712585E-1,9.824519806E0,9.922654432E0
1.755015500E0,1.347946930E0,-4.713697815E-1,9.832902374E0,9.936051504E0
1.765046500E0,1.354982300E0,-4.846920776E-1,9.837393036E0,9.942092596E0
1.775078500E0,1.333127747E0,-4.861889648E-1,9.763297119E0,9.865879582E0
1.785109500E0,1.315763855E0,-5.158273315E-1,9.756860504E0,9.858683444E0
1.795140500E0,1.321601715E0,-5.608836365E-1,9.766590271E0,9.871550388E0
1.805172500E0,1.384920044E0,-5.825885010E-1,9.812844086E0,9.927201113E0
1.815203500E0,1.441951447E0,-5.662724304E-1,9.815538483E0,9.937035984E0
1.825234500E0,1.457219696E0,-4.909790039E-1,9.818232880E0,9.937919627E0
1.835266500E0,1.429676971E0,-4.216731262E-1,9.763446808E0,9.876572181E0
1.845297500E0,1.388662262E0,-3.680845642E-1,9.688752136E0,9.794681571E0
1.855328500E0,1.388512573E0,-3.360511780E-1,9.672436066E0,9.777367591E0
1.865360500E0,1.404978333E0,-3.275189209E-1,9.684111786E0,9.790978186E0
1.875391500E0,1.423539734E0,-2.987786865E-1,9.714199219E0,9.822494619E0
1.885422500E0,1.421743469E0,-3.121009827E-1,9.743687897E0,9.851812795E0
1.895454500E0,1.395248566E0,-3.508703613E-1,9.796528015E0,9.901605411E0
1.905485500E0,1.355431366E0,-3.939807129E-1,9.830357666E0,9.931180536E0
1.915516500E0,1.312171326E0,-4.171824646E-1,9.845625916E0,9.941437746E0
1.925548500E0,1.299896851E0,-4.328997803E-1,9.843081207E0,9.937976741E0
1.935579500E0,1.289418640E0,-4.263134766E-1,9.828711090E0,9.922091781E0
1.945611500E0,1.280137939E0,-4.210743713E-1,9.802515564E0,9.894714152E0
1.955642500E0,1.292412415E0,-4.275109863E-1,9.773176575E0,9.867526329E0
1.965673500E0,1.298549652E0,-4.258644104E-1,9.764195251E0,9.859366136E0
1.975705500E0,1.318158875E0,-4.448748779E-1,9.762099609E0,9.860732491E0
1.985736500E0,1.356329498E0,-4.562512207E-1,9.765991516E0,9.870277867E0
1.995767500E0,1.379531250E0,-4.704716492E-1,9.775870972E0,9.883931571E0
2.005799500E0,1.402433624E0,-4.598437500E-1,9.770033112E0,9.880881709E0
2.015830500E0,1.420845337E0,-4.400848389E-1,9.789342957E0,9.901702463E0
2.025861500E0,1.421294403E0,-4.128414917E-1,9.794731750E0,9.905921761E0
2.035893500E0,1.446442108E0,-4.046086121E-1,9.788444824E0,9.903007370E0
2.045924500E0,1.434017944E0,-3.727249146E-1,9.747130737E0,9.859101832E0
2.055955500E0,1.420545959E0,-3.483256531E-1,9.781559143E0,9.890307420E0
2.065987500E0,1.394500122E0,-3.513194275E-1,9.754166107E0,9.859605082E0
2.076018500E0,1.392853546E0,-3.520678711E-1,9.736053772E0,9.841480368E0
2.086049500E0,1.386566620E0,-4.067042542E-1,9.750274200E0,9.856765307E0
2.096081500E0,1.377734985E0,-4.375401306E-1,9.761650543E0,9.868100951E0
2.106112500E0,1.355581055E0,-4.607418823E-1,9.788744202E0,9.892896245E0
2.116143500E0,1.371298370E0,-4.858895874E-1,9.802515564E0,9.909886947E0
2.126175500E0,1.377734985E0,-4.957690430E-1,9.820478210E0,9.929034843E0
2.136206500E0,1.382375336E0,-4.799020386E-1,9.802964630E0,9.911578233E0
2.146237500E0,1.384770355E0,-4.647834778E-1,9.776469727E0,9.884987250E0
2.156269500E0,1.405876465E0,-4.644841003E-1,9.755962372E0,9.867676318E0
2.166300500E0,1.423390045E0,-4.339476013E-1,9.761351166E0,9.874124079E0
2.176331500E0,1.418300629E0,-4.272116089E-1,9.762249298E0,9.873985912E0
2.186363500E0,1.418749695E0,-4.346960449E-1,9.737700348E0,9.850107584E0
2.196394500E0,1.404229889E0,-4.393363953E-1,9.763147430E0,9.873394847E0
2.206426500E0,1.399589539E0,-4.357438660E-1,9.760003967E0,9.869468123E0
2.216457500E0,1.401236115E0,-4.387376404E-1,9.766290894E0,9.876051396E0
2.226488500E0,1.406475220E0,-4.391867065E-1,9.774823151E0,9.885252912E0
2.236520500E0,1.416204987E0,-4.553530884E-1,9.764644318E0,9.877310446E0
2.246551500E0,1.418749695E0,-4.655319214E-1,9.764794006E0,9.878298065E0
2.256582500E0,1.421144714E0,-4.775070190E-1,9.734556885E0,9.849328048E0
2.266614500E0,1.416055298E0,-4.791535950E-1,9.729467468E0,9.843644548E0
2.276645500E0,1.418600006E0,-4.775070190E-1,9.746082916E0,9.860353500E0
2.286676500E0,1.440604248E0,-4.685256958E-1,9.727222137E0,9.844475986E0
2.296708500E0,1.454824677E0,-4.794529724E-1,9.729317780E0,9.849163134E0
2.306739500E0,1.467398529E0,-4.619393921E-1,9.742490387E0,9.863202593E0
2.316770500E0,1.468146973E0,-4.501139832E-1,9.739346924E0,9.859662095E0
2.326802500E0,1.442849579E0,-4.640350342E-1,9.758207703E0,9.875209415E0
2.336833500E0,1.423988800E0,-4.451742554E-1,9.775571594E0,9.888767578E0
2.346864500E0,1.397194519E0,-4.444258118E-1,9.773026886E0,9.882394515E0
2.356896500E0,1.376387787E0,-4.508624268E-1,9.779463501E0,9.886133048E0
2.366927500E0,1.357826385E0,-4.273612976E-1,9.783505096E0,9.886521236E0
2.376958500E0,1.380878448E0,-4.162843323E-1,9.773625641E0,9.879467400E0
2.386990500E0,1.362017670E0,-4.299060059E-1,9.760752411E0,9.864694569E0
2.397021500E0,1.378483429E0,-4.165837097E-1,9.742939453E0,9.848788136E0
2.407052500E0,1.373843079E0,-4.116439819E-1,9.735305328E0,9.840379333E0
2.417084500E0,1.405427399E0,-4.273612976E-1,9.751471710E0,9.861494023E0
2.427115500E0,1.409918060E0,-4.150868225E-1,9.774673462E0,9.884553975E0
2.437146500E0,1.432221680E0,-4.260140991E-1,9.791588287E0,9.904945641E0
2.447178500E0,1.455872498E0,-4.171824646E-1,9.789792023E0,9.906242163E0
2.457209500E0,1.467997284E0,-4.183799744E-1,9.782906342E0,9.901278418E0
2.467241500E0,1.481319580E0,-4.108955383E-1,9.747130737E0,9.867608649E0
2.477272500E0,1.475930786E0,-4.257147217E-1,9.737999725E0,9.858409778E0
2.487303500E0,1.449435883E0,-4.382885742E-1,9.729317780E0,9.846450412E0
2.497335500E0,1.423689423E0,-4.659809875E-1,9.751621399E0,9.866009820E0
2.507366500E0,1.430724792E0,-4.779560852E-1,9.778415680E0,9.894080486E0
2.517397500E0,1.430126038E0,-4.575984192E-1,9.776020660E0,9.890664121E0
2.527429500E0,1.404379578E0,-4.406835938E-1,9.737400970E0,9.848018160E0
2.537460500E0,1.418749695E0,-4.239184570E-1,9.737700348E0,9.849637842E0
2.547491500E0,1.445993042E0,-4.734654236E-1,9.748777313E0,9.866799100E0
2.557523500E0,1.489552460E0,-4.805007935E-1,9.799372101E0,9.923575017E0
2.567554500E0,1.534309387E0,-4.760101318E-1,9.780810699E0,9.911859002E0
2.577585500E0,1.512903900E0,-4.825964355E-1,9.776320038E0,9.904454100E0
2.587617500E0,1.472487946E0,-4.454736328E-1,9.730664978E0,9.851523152E0
2.597648500E0,1.442849579E0,-4.558021545E-1,9.718091125E0,9.835185084E0
2.607679500E0,1.446142731E0,-4.718188477E-1,9.746531982E0,9.864523684E0
2.617711500E0,1.458417206E0,-4.225712585E-1,9.762997742E0,9.880368015E0
2.627742500E0,1.448986816E0,-3.682342529E-1,9.768985291E0,9.882723960E0
2.637773500E0,1.453627167E0,-3.332070923E-1,9.738897858E0,9.852420534E0
2.647805500E0,1.453776855E0,-3.198847961E-1,9.709409180E0,9.822851930E0
2.657836500E0,1.453627167E0,-3.426374817E-1,9.702972565E0,9.817235302E0
2.667867500E0,1.439406738E0,-3.728746033E-1,9.744735718E0,9.857525117E0
2.677899500E0,1.445843353E0,-3.969744873E-1,9.799372101E0,9.913412395E0
2.687930500E0,1.441203003E0,-4.364923096E-1,9.829160156E0,9.943841361E0
2.697961500E0,1.440454559E0,-4.661306763E-1,9.823022919E0,9.939012346E0
2.707993500E0,1.423090668E0,-4.745132446E-1,9.814041595E0,9.928029125E0
2.718024500E0,1.424437866E0,-4.797523499E-1,9.783654785E0,9.898438589E0
2.728055500E0,1.447938995E0,-4.772076416E-1,9.737400970E0,9.856025169E0
2.738087500E0,1.447190552E0,-4.752616882E-1,9.702523499E0,9.821364284E0
2.748118500E0,1.453776855E0,-4.601431274E-1,9.692494354E0,9.811709619E0
2.758150500E0,1.448537750E0,-4.659809875E-1,9.705966339E0,9.824519452E0
2.768181500E0,1.454076233E0,-4.599934387E-1,9.720186768E0,9.839103742E0
2.778212500E0,1.460213470E0,-4.626878357E-1,9.730365601E0,9.850193812E0
2.788244500E0,1.464255066E0,-4.484674072E-1,9.741592255E0,9.861226372E0
2.798275500E0,1.458866272E0,-4.095483398E-1,9.758656769E0,9.875596315E0
2.808306500E0,1.452130280E0,-3.826043701E-1,9.773475952E0,9.888169732E0
2.818338500E0,1.454974365E0,-3.616479492E-1,9.755363617E0,9.869896602E0
2.828369500E0,1.469194794E0,-3.390449524E-1,9.812245331E0,9.927418761E0
2.838400500E0,1.461261292E0,-3.056643677E-1,9.770931244E0,9.884321557E0
2.848432500E0,1.451232147E0,-3.107537842E-1,9.774972839E0,9.886998365E0
2.858463500E0,1.453028412E0,-3.779640198E-1,9.748477936E0,9.863415759E0
2.868494500E0,1.433419189E0,-4.225712585E-1,9.780062256E0,9.893577451E0
2.878526500E0,1.421444092E0,-4.308041382E-1,9.810149689E0,9.921952047E0
2.888557500E0,1.430126038E0,-4.349954224E-1,9.803413696E0,9.916723330E0
2.898588500E0,1.438658295E0,-4.424798584E-1,9.829908600E0,9.944477321E0
2.908620500E0,1.485361176E0,-4.813989258E-1,9.853260040E0,9.976210511E0
2.918651500E0,1.512903900E0,-4.969665527E-1,9.875114594E0,1.000268675E1
2.928682500E0,1.538650360E0,-4.475692749E-1,9.859996033E0,9.989358586E0
2.938714500E0,1.518143005E0,-4.113446045E-1,9.797725525E0,9.923174292E0
2.948745500E0,1.472487946E0,-4.201762390E-1,9.745633850E0,9.865198830E0
2.958776500E0,1.451531525E0,-4.080514526E-1,9.739945679E0,9.855962235E0
2.968808500E0,1.470841370E0,-3.725752258E-1,9.766590271E0,9.883747880E0
2.978839500E0,1.491947479E0,-3.498225403E-1,9.777218170E0,9.896579118E0
2.988870500E0,1.481469269E0,-3.091072083E-1,9.773625641E0,9.890098919E0
2.998902500E0,1.476679230E0,-2.851570129E-1,9.751172333E0,9.866471402E0
3.008933500E0,1.462159424E0,-2.800675964E-1,9.750723267E0,9.863718987E0
3.018965500E0,1.451681213E0,-2.954855347E-1,9.732012177E0,9.844122665E0
3.028996500E0,1.448837128E0,-3.017724609E-1,9.727371826E0,9.839306799E0
3.039027500E0,1.443598022E0,-3.183879089E-1,9.715845795E0,9.827665319E0
3.049059500E0,1.453477478E0,-3.300636292E-1,9.699230347E0,9.813083516E0
3.059090500E0,1.440155182E0,-3.656895447E-1,9.686506805E0,9.799805604E0
3.069121500E0,1.435963898E0,-4.019142151E-1,9.698032837E0,9.812001236E0
3.079153500E0,1.432970123E0,-4.165837097E-1,9.683662720E0,9.797972700E0
3.089184500E0,1.411714325E0,-4.186793518E-1,9.673932953E0,9.785356841E0
3.099215500E0,1.385818176E0,-4.463717651E-1,9.680519257E0,9.789391853E0
3.109247500E0,1.384171600E0,-4.435276794E-1,9.692494354E0,9.800872136E0
3.119278500E0,1.372346191E0,-4.584965515E-1,9.717192993E0,9.824326584E0
3.129309500E0,1.384470978E0,-4.632865906E-1,9.739945679E0,9.848753027E0
3.139341500E0,1.419198761E0,-4.650828552E-1,9.769733734E0,9.883224394E0
3.149372500E0,1.424886932E0,-4.575984192E-1,9.778864746E0,9.892719283E0
3.159403500E0,1.432521057E0,-4.372407532E-1,9.808802490E0,9.922494764E0
3.169435500E0,1.448238373E0,-3.938310242E-1,9.799521790E0,9.913784573E0
3.179466500E0,1.422940979E0,-3.582051086E-1,9.764794006E0,9.874425245E0
3.189497500E0,1.418150940E0,-3.339555359E-1,9.776170349E0,9.884138055E0
3.199529500E0,1.425785065E0,-3.239263916E-1,9.774972839E0,9.883718195E0
3.209560500E0,1.450633392E0,-2.956352234E-1,9.760902100E0,9.872534995E0
3.219591500E0,1.454375610E0,-2.607577515E-1,9.746082916E0,9.857450747E0
3.229623500E0,1.443148956E0,-2.662962341E-1,9.725425873E0,9.835522406E0
3.239654500E0,1.460662537E0,-2.655477905E-1,9.698032837E0,9.811008693E0
3.249685500E0,1.449884949E0,-2.821632385E-1,9.709558868E0,9.821268547E0
3.259717500E0,1.449286194E0,-3.294648743E-1,9.734257507E0,9.847067929E0
3.269748500E0,1.467248840E0,-3.716770935E-1,9.780661011E0,9.897085067E0
3.279780500E0,1.460662537E0,-3.576063538E-1,9.788444824E0,9.903285789E0
3.289811500E0,1.421294403E0,-3.450325012E-1,9.742939453E0,9.852106089E0
3.299842500E0,1.409768372E0,-3.631448364E-1,9.768985291E0,9.876861578E0
3.309874500E0,1.420845337E0,-4.249662781E-1,9.807754669E0,9.919246416E0
3.319905500E0,1.470991058E0,-4.758604431E-1,9.819430389E0,9.940395919E0
3.329936500E0,1.491199036E0,-4.541555786E-1,9.775571594E0,9.899077323E0
3.339968500E0,1.449585571E0,-4.415817261E-1,9.762398987E0,9.879308009E0
3.349999500E0,1.413211212E0,-3.849993896E-1,9.697134705E0,9.807130668E0
3.360030500E0,1.421743469E0,-4.053570557E-1,9.682016144E0,9.794238380E0
3.370062500E0,1.441951447E0,-4.132905579E-1,9.679471436E0,9.795008950E0
3.380093500E0,1.459315338E0,-3.522175598E-1,9.714049530E0,9.829365022E0
3.390124500E0,1.450334015E0,-3.007246399E-1,9.749675446E0,9.861545282E0
3.400156500E0,1.437161407E0,-2.490820312E-1,9.728719025E0,9.837451328E0
3.410187500E0,1.442400513E0,-2.365081787E-1,9.720336456E0,9.829618313E0
3.420218500E0,1.453178101E0,-2.528242493E-1,9.746981049E0,9.857955480E0
3.430250500E0,1.427880707E0,-2.838098145E-1,9.776170349E0,9.883971773E0
3.440281500E0,1.407373352E0,-3.225791931E-1,9.801916809E0,9.907690458E0
3.450312500E0,1.415007477E0,-3.400927734E-1,9.817933502E0,9.925206673E0
3.460344500E0,1.408271484E0,-3.665876770E-1,9.811945953E0,9.919269050E0
3.470375500E0,1.407223663E0,-4.083508301E-1,9.799821167E0,9.908759950E0
3.480406500E0,1.446442108E0,-4.161346436E-1,9.790540466E0,9.905556291E0
3.490438500E0,1.454674988E0,-4.194277954E-1,9.770781555E0,9.887374333E0
3.500469500E0,1.457070007E0,-4.099974060E-1,9.746531982E0,9.863368419E0
3.510501500E0,1.443747711E0,-3.972738647E-1,9.717492371E0,9.832186529E0
3.520532500E0,1.432970123E0,-3.710783386E-1,9.714797974E0,9.826922315E0
3.530563500E0,1.414408722E0,-3.776646423E-1,9.704768829E0,9.814566758E0
3.540595500E0,1.423090668E0,-3.644920349E-1,9.696835327E0,9.807479638E0
3.550626500E0,1.413510590E0,-3.550616455E-1,9.707612915E0,9.816406138E0
3.560657500E0,1.437909851E0,-3.415896606E-1,9.713600464E0,9.825390690E0
3.570689500E0,1.442849579E0,-3.474275208E-1,9.749525757E0,9.861834174E0
3.580720500E0,1.439855804E0,-3.540138245E-1,9.779912567E0,9.891673283E0
3.590751500E0,1.430575104E0,-3.487747192E-1,9.766141205E0,9.876522818E0
3.600783500E0,1.415606232E0,-3.288661194E-1,9.841434631E0,9.948162118E0
3.610814500E0,1.403481445E0,-3.020718384E-1,9.810898132E0,9.915378446E0
3.620845500E0,1.432371368E0,-2.799179077E-1,9.785451050E0,9.893689606E0
3.630877500E0,1.445693665E0,-3.095562744E-1,9.749675446E0,9.861137184E0
3.640908500E0,1.410367126E0,-3.221301270E-1,9.714648285E0,9.821776548E0
3.650939500E0,1.367556152E0,-3.025209045E-1,9.695637817E0,9.796280999E0
3.660971500E0,1.375789032E0,-3.270698547E-1,9.743388519E0,9.845475610E0
3.671002500E0,1.438358917E0,-4.173321533E-1,9.816885681E0,9.930472646E0
3.681033500E0,1.511706390E0,-4.507127380E-1,9.862391052E0,9.987750270E0
3.691065500E0,1.545985107E0,-4.326004028E-1,9.863588562E0,9.993377426E0
3.701096500E0,1.534908142E0,-4.017645264E-1,9.818681946E0,9.946048104E0
3.711127500E0,1.464255066E0,-3.926335144E-1,9.740993500E0,9.858253311E0
3.721159500E0,1.394500122E0,-3.540138245E-1,9.677974548E0,9.784331747E0
3.731190500E0,1.380878448E0,-3.441343689E-1,9.702074432E0,9.805891191E0
3.741221500E0,1.403481445E0,-3.276686096E-1,9.715995483E0,9.822305998E0
3.751253292E0,1.442999268E0,-2.833607483E-1,9.702822876E0,9.813628889E0
3.761284292E0,1.447639618E0,-2.815644836E-1,9.694589996E0,9.806121263E0
3.771316292E0,1.408271484E0,-2.794688416E-1,9.683662720E0,9.789517612E0
3.781347292E0,1.374591522E0,-2.975811768E-1,9.704319763E0,9.805706424E0
3.791378292E0,1.384620667E0,-3.363505554E-1,9.741592255E0,9.845248892E0
3.801410292E0,1.395098877E0,-3.727249146E-1,9.755064240E0,9.861364158E0
3.811441292E0,1.397344208E0,-3.861968994E-1,9.758058014E0,9.865161686E0
3.821472292E0,1.403481445E0,-3.939807129E-1,9.784403229E0,9.892397460E0
3.831504292E0,1.400337982E0,-4.001179504E-1,9.774074707E0,9.881982454E0
3.841535292E0,1.378034363E0,-4.131408691E-1,9.759854279E0,9.865313965E0
3.851566292E0,1.378034363E0,-3.959266663E-1,9.745484161E0,9.850390762E0
3.861598292E0,1.367107086E0,-3.805087280E-1,9.742340698E0,9.845149616E0
3.871629292E0,1.373843079E0,-3.793112183E-1,9.732610931E0,9.836413846E0
3.881660292E0,1.378034363E0,-3.809577942E-1,9.747280426E0,9.851577704E0
3.891692292E0,1.381776581E0,-3.484753418E-1,9.761351166E0,9.864822257E0
3.901723292E0,1.372046814E0,-3.400927734E-1,9.761201477E0,9.863023362E0
3.911754292E0,1.386117554E0,-3.394940186E-1,9.774823151E0,9.878448547E0
3.921786292E0,1.391955414E0,-3.472778320E-1,9.788893890E0,9.893461748E0
3.931817292E0,1.399739227E0,-3.472778320E-1,9.812095642E0,9.917514441E0
3.941848292E0,1.408121796E0,-3.493734741E-1,9.818681946E0,9.925290120E0
3.951880292E0,1.409618683E0,-3.567082214E-1,9.790839844E0,9.898222590E0
3.961911292E0,1.409918060E0,-3.591032410E-1,9.771080933E0,9.878807958E0
3.971942292E0,1.409169617E0,-3.655398560E-1,9.760003967E0,9.867981346E0
3.981974292E0,1.418600006E0,-3.597019958E-1,9.787696381E0,9.896505037E0
3.992005292E0,1.418899384E0,-3.543132019E-1,9.803114319E0,9.911602477E0
4.002036292E0,1.431473236E0,-3.481759644E-1,9.767638092E0,9.878111967E0
4.012068292E0,1.393601990E0,-3.171903992E-1,9.715995483E0,9.820555203E0
4.022099292E0,1.371148682E0,-3.275189209E-1,9.686357117E0,9.788402911E0
4.032130292E0,1.358574829E0,-3.559597778E-1,9.724827118E0,9.825716025E0
4.042162292E0,1.369502106E0,-3.700305176E-1,9.772278442E0,9.874709340E0
4.052193292E0,1.386267242E0,-3.309617615E-1,9.731712799E0,9.835522689E0
4.062225292E0,1.369352417E0,-3.061134338E-1,9.717941437E0,9.818717699E0
4.072256292E0,1.398990784E0,-3.204835510E-1,9.789193268E0,9.893846055E0
4.082287292E0,1.434766388E0,-3.965254211E-1,9.828112335E0,9.940200152E0
4.092319292E0,1.478176117E0,-4.046086121E-1,9.842632141E0,9.961230859E0
4.102350292E0,1.461261292E0,-3.978726196E-1,9.764195251E0,9.880946113E0
4.112381292E0,1.387015686E0,-4.096980286E-1,9.716893616E0,9.823934371E0
4.122413292E0,1.369352417E0,-4.418811035E-1,9.741143188E0,9.846839877E0
4.132444292E0,1.395098877E0,-4.936734009E-1,9.783205719E0,9.894499909E0
4.142475292E0,1.434017944E0,-4.930746460E-1,9.796078949E0,9.912754049E0
4.152507292E0,1.451531525E0,-4.468208313E-1,9.805359650E0,9.922281516E0
4.162538292E0,1.420995026E0,-3.827540588E-1,9.787696381E0,9.897713270E0
4.172569292E0,1.390757904E0,-3.375480652E-1,9.753267975E0,9.857706753E0
4.182601292E0,1.370400238E0,-2.829116821E-1,9.730964355E0,9.831058087E0
4.192632292E0,1.362915802E0,-2.781216431E-1,9.765542450E0,9.864112250E0
4.202663292E0,1.383273468E0,-2.603086853E-1,9.787247314E0,9.887942966E0
4.212695292E0,1.391057281E0,-2.535726929E-1,9.809101868E0,9.910490347E0
4.222726292E0,1.383423157E0,-2.493814087E-1,9.809101868E0,9.909315323E0
4.232757292E0,1.351389771E0,-2.698887634E-1,9.795031128E0,9.891497816E0
4.242789292E0,1.354982300E0,-2.885998535E-1,9.802515564E0,9.899928196E0
4.252820292E0,1.364861755E0,-3.210823059E-1,9.783954163E0,9.883911195E0
4.262851292E0,1.377435608E0,-3.465293884E-1,9.769733734E0,9.872441882E0
4.272883292E0,1.383273468E0,-3.598516846E-1,9.750274200E0,9.854480489E0
4.282914292E0,1.399739227E0,-3.857478333E-1,9.743089142E0,9.850678013E0
4.292946292E0,1.400637360E0,-4.062551880E-1,9.743388519E0,9.851926113E0
4.302977292E0,1.392105103E0,-4.140390015E-1,9.735455017E0,9.843194060E0
4.313008292E0,1.395697632E0,-4.299060059E-1,9.753717041E0,9.862443266E0
4.323040292E0,1.394051056E0,-4.328997803E-1,9.777966614E0,9.886324477E0
4.333071292E0,1.395997009E0,-4.302053833E-1,9.783056030E0,9.891515031E0
4.343102292E0,1.399290161E0,-3.903881836E-1,9.789792023E0,9.896991651E0
4.353134292E0,1.402433624E0,-3.707789612E-1,9.798024902E0,9.904826556E0
4.363165292E0,1.407523041E0,-3.373983765E-1,9.801018677E0,9.907316785E0
4.373196292E0,1.420545959E0,-3.077600098E-1,9.751920776E0,9.859646336E0
4.383228292E0,1.403631134E0,-2.688409424E-1,9.748477936E0,9.852678716E0
4.393259292E0,1.386416931E0,-2.351609802E-1,9.757758636E0,9.858565119E0
4.403290292E0,1.374890900E0,-2.182461548E-1,9.728419647E0,9.827517754E0
4.413322292E0,1.357227631E0,-2.146536255E-1,9.695188751E0,9.792079858E0
4.423353292E0,1.359173584E0,-2.571652222E-1,9.727371826E0,9.825235337E0
4.433384292E0,1.371148682E0,-2.950364685E-1,9.740993500E0,9.841445503E0
4.443416292E0,1.385219421E0,-3.463796997E-1,9.774673462E0,9.878413487E0
4.453447292E0,1.395547943E0,-3.796105957E-1,9.815837860E0,9.921810881E0
4.463478292E0,1.404828644E0,-4.085005188E-1,9.833800507E0,9.942034429E0
4.473510292E0,1.448388062E0,-4.174818420E-1,9.848919067E0,9.963600045E0
4.483541292E0,1.446292419E0,-4.026626587E-1,9.823022919E0,9.937086003E0
4.493572292E0,1.434766388E0,-3.724255371E-1,9.798623657E0,9.910110037E0
4.503604292E0,1.409918060E0,-3.417393494E-1,9.761351166E0,9.868567844E0
4.513635292E0,1.383722534E0,-3.197351074E-1,9.729467468E0,9.832571170E0
4.523666292E0,1.368304596E0,-3.119512939E-1,9.745933228E0,9.846460560E0
4.533698292E0,1.382824402E0,-3.159928894E-1,9.735754395E0,9.838545038E0
4.543729292E0,1.411564636E0,-3.061134338E-1,9.756261749E0,9.862599225E0
4.553760292E0,1.403331757E0,-3.106040955E-1,9.774224396E0,9.879335882E0
4.563792292E0,1.416803741E0,-3.121009827E-1,9.761650543E0,9.868868283E0
4.573823292E0,1.399140472E0,-3.216810608E-1,9.743687897E0,9.848884536E0
4.583855292E0,1.377734985E0,-3.327580261E-1,9.710307312E0,9.813202825E0
4.593886292E0,1.364412689E0,-3.525169373E-1,9.738448792E0,9.839881861E0
4.603917292E0,1.364412689E0,-3.802093506E-1,9.760303345E0,9.862540368E0
4.613949292E0,1.392105103E0,-3.665876770E-1,9.786349182E0,9.891661815E0
4.623980292E0,1.400038605E0,-3.534150696E-1,9.817933502E0,9.923549192E0
4.634011292E0,1.401984558E0,-3.478765869E-1,9.798773346E0,9.904672529E0
4.644043292E0,1.413660278E0,-3.273692322E-1,9.800419922E0,9.907261814E0
4.654074292E0,1.397344208E0,-3.345542908E-1,9.791887665E0,9.896744993E0
4.664105292E0,1.369951172E0,-3.294648743E-1,9.773176575E0,9.874223700E0
4.674137292E0,1.363963623E0,-3.315605164E-1,9.775870972E0,9.876131955E0
4.684168292E0,1.346150665E0,-3.314108276E-1,9.775870972E0,9.873682596E0
4.694199292E0,1.347497864E0,-3.451821899E-1,9.773775330E0,9.872263440E0
4.704231292E0,1.338366852E0,-3.179388428E-1,9.781259766E0,9.877517580E0
4.714262292E0,1.349294128E0,-3.252735901E-1,9.783355408E0,9.881317756E0
4.724293292E0,1.347797241E0,-3.112028503E-1,9.786798248E0,9.884069231E0
4.734325292E0,1.359023895E0,-3.167413330E-1,9.796977081E0,9.895859283E0
4.744356000E0,1.369502106E0,-3.234773254E-1,9.808503113E0,9.908930664E0
4.754387000E0,1.371448059E0,-3.294648743E-1,9.787097626E0,9.888209991E0
4.764419000E0,1.382824402E0,-3.231779480E-1,9.777667236E0,9.880254243E0
4.774450000E0,1.387464752E0,-3.276686096E-1,9.774823151E0,9.878238344E0
4.784481000E0,1.385518799E0,-3.192860413E-1,9.764344940E0,9.867321725E0
4.794513000E0,1.397344208E0,-3.225791931E-1,9.748328247E0,9.853249808E0
4.804544000E0,1.399888916E0,-3.222798157E-1,9.745633850E0,9.850935610E0
4.814575000E0,1.390608215E0,-3.385958862E-1,9.764644318E0,9.868977507E0
4.824607000E0,1.373094635E0,-3.484753418E-1,9.783505096E0,9.885534680E0
4.834638000E0,1.366508331E0,-3.517684937E-1,9.784702606E0,9.885923891E0
4.844670000E0,1.354383545E0,-3.541635132E-1,9.776619415E0,9.876339088E0
4.854701000E0,1.328637085E0,-3.418890381E-1,9.764344940E0,9.860253381E0
4.864732000E0,1.360371094E0,-3.450325012E-1,9.796977081E0,9.896990294E0
4.874764000E0,1.387764130E0,-3.396437073E-1,9.806557159E0,9.910086299E0
4.884795000E0,1.383273468E0,-3.025209045E-1,9.782756653E0,9.884699900E0
4.894826000E0,1.380279694E0,-2.754272461E-1,9.737251282E0,9.838449813E0
4.904858000E0,1.358275452E0,-2.643502808E-1,9.711055756E0,9.809148646E0
4.914889000E0,1.341809692E0,-2.785707092E-1,9.749675446E0,9.845518076E0
4.924920000E0,1.352736969E0,-3.031196594E-1,9.786498871E0,9.884196426E0
4.934952000E0,1.344504089E0,-2.959346008E-1,9.762548676E0,9.859139170E0
4.944983000E0,1.326242065E0,-2.908451843E-1,9.731563110E0,9.825824622E0
4.955014000E0,1.341360626E0,-3.164419556E-1,9.811047821E0,9.907373173E0
4.965046000E0,1.400637360E0,-3.637435913E-1,9.831405487E0,9.937335069E0
4.975077000E0,1.451830902E0,-3.365002441E-1,9.861792297E0,9.973765222E0
4.985108000E0,1.423240356E0,-3.152444458E-1,9.786648560E0,9.894618851E0
4.995140000E0,1.397194519E0,-2.933898926E-1,9.691296844E0,9.795890193E0
5.005171000E0,1.369651794E0,-3.121009827E-1,9.661957855E0,9.763543550E0
5.015202000E0,1.380878448E0,-3.778143311E-1,9.694290619E0,9.799430573E0
5.025234000E0,1.395248566E0,-4.061054993E-1,9.763746185E0,9.871290686E0
5.035265000E0,1.386267242E0,-4.125421143E-1,9.807904358E0,9.913975780E0
5.045296000E0,1.382974091E0,-3.770658875E-1,9.810299377E0,9.914472749E0
5.055328000E0,1.374890900E0,-3.384461975E-1,9.778565369E0,9.880547125E0
5.065359000E0,1.385069733E0,-3.041674805E-1,9.773925018E0,9.876261757E0
5.075390000E0,1.415456543E0,-2.752775574E-1,9.760752411E0,9.866690559E0
5.085422000E0,1.416654053E0,-2.333647156E-1,9.780361633E0,9.885182926E0
5.095453000E0,1.424138489E0,-1.948947144E-1,9.801018677E0,9.905862985E0
5.105485000E0,1.391955414E0,-1.838177490E-1,9.792486420E0,9.892629535E0
5.115516000E0,1.371298370E0,-1.793270874E-1,9.781110077E0,9.878397226E0
5.125547000E0,1.320703583E0,-1.913021851E-1,9.763596497E0,9.854373193E0
5.135579000E0,1.307830353E0,-2.143542480E-1,9.729916534E0,9.819757825E0
5.145610000E0,1.327439575E0,-2.668949890E-1,9.736053772E0,9.829754413E0
5.155641000E0,1.351539459E0,-3.107537842E-1,9.730066223E0,9.828398421E0
5.165673000E0,1.383423157E0,-3.579057312E-1,9.756561127E0,9.860651153E0
5.175704000E0,1.381028137E0,-3.875440979E-1,9.777367859E0,9.882021625E0
5.185735000E0,1.379680939E0,-4.320016479E-1,9.763147430E0,9.869609550E0
5.195767000E0,1.377884674E0,-4.373904419E-1,9.755812683E0,9.862340375E0
5.205798000E0,1.366208954E0,-4.372407532E-1,9.758806458E0,9.863671216E0
5.215829000E0,1.385069733E0,-4.287084961E-1,9.770631866E0,9.877624016E0
5.225861000E0,1.397942963E0,-4.230203247E-1,9.788744202E0,9.897105828E0
5.235892000E0,1.398092651E0,-3.993695068E-1,9.796528015E0,9.903843709E0
5.245923000E0,1.414708099E0,-3.568579102E-1,9.814340973E0,9.922199116E0
5.255955000E0,1.413959656E0,-3.080593872E-1,9.796228638E0,9.902538968E0
5.265986000E0,1.382525024E0,-2.531236267E-1,9.765991516E0,9.866612251E0
5.276017000E0,1.345252533E0,-2.447410583E-1,9.770182800E0,9.865397839E0
5.286049000E0,1.323996735E0,-2.110610962E-1,9.745933228E0,9.837719686E0
5.296080000E0,1.331930237E0,-1.980381775E-1,9.742340698E0,9.834961086E0
5.306111000E0,1.334474945E0,-2.086660767E-1,9.737700348E0,9.830929406E0
5.316143000E0,1.367855530E0,-2.526745605E-1,9.744735718E0,9.843512960E0
5.326174000E0,1.410217438E0,-2.806663513E-1,9.760453033E0,9.865795976E0
5.336205000E0,1.413660278E0,-3.225791931E-1,9.776619415E0,9.883561095E0
5.346237000E0,1.417552185E0,-3.516188049E-1,9.804012451E0,9.912202082E0
5.356268000E0,1.440155182E0,-3.772155762E-1,9.819131012E0,9.931347963E0
5.366299000E0,1.439257050E0,-3.812571716E-1,9.787097626E0,9.899701906E0
5.376331000E0,1.450034637E0,-3.649411011E-1,9.770332489E0,9.884087181E0
5.386362000E0,1.424886932E0,-3.396437073E-1,9.751322021E0,9.860727244E0
5.396394000E0,1.404828644E0,-3.356021118E-1,9.721384277E0,9.828096691E0
5.406425000E0,1.379531250E0,-3.323089600E-1,9.720935211E0,9.823956285E0
5.416456000E0,1.379231873E0,-3.221301270E-1,9.748627625E0,9.850979085E0
5.426488000E0,1.402733002E0,-3.233276367E-1,9.752220154E0,9.857890168E0
5.436519000E0,1.400188293E0,-3.332070923E-1,9.781559143E0,9.886882901E0
5.446550000E0,1.412163391E0,-3.366499329E-1,9.795330505E0,9.902324895E0
5.456582000E0,1.396296387E0,-3.460803223E-1,9.792336731E0,9.897437741E0
5.466613000E0,1.366658020E0,-3.375480652E-1,9.801767120E0,9.902339699E0
5.476644000E0,1.351838837E0,-3.403921509E-1,9.776170349E0,9.875061607E0
5.486676000E0,1.345701599E0,-3.296145630E-1,9.776020660E0,9.873709460E0
5.496707000E0,1.311722260E0,-3.354524231E-1,9.775571594E0,9.868887658E0
5.506738000E0,1.327140198E0,-3.378474426E-1,9.783954163E0,9.879332015E0
5.516770000E0,1.337019653E0,-3.351530457E-1,9.795480194E0,9.891985713E0
5.526801000E0,1.337468719E0,-3.447331238E-1,9.783355408E0,9.880369757E0
5.536832000E0,1.344204712E0,-3.305126953E-1,9.788893890E0,9.886281836E0
5.546864000E0,1.359922028E0,-3.318598938E-1,9.787397003E0,9.886994438E0
5.556895000E0,1.381177826E0,-3.171903992E-1,9.799372101E0,9.901310797E0
5.566926000E0,1.377884674E0,-3.204835510E-1,9.787247314E0,9.888957775E0
5.576958000E0,1.385219421E0,-3.156935120E-1,9.786798248E0,9.889383964E0
5.586989000E0,1.400188293E0,-3.149450684E-1,9.768386536E0,9.873251398E0
5.597020000E0,1.401685181E0,-3.047662354E-1,9.766889648E0,9.871663346E0
5.607052000E0,1.401834869E0,-3.188369751E-1,9.773326263E0,9.878497065E0
5.617083000E0,1.391356659E0,-3.308120728E-1,9.767937469E0,9.872077410E0
5.627115000E0,1.397044830E0,-3.487747192E-1,9.781409454E0,9.886827043E0
5.637146000E0,1.385518799E0,-3.628454590E-1,9.800419922E0,9.904521685E0
5.647177000E0,1.384470978E0,-3.538641357E-1,9.785600739E0,9.889386307E0
5.657209000E0,1.388362885E0,-3.552113342E-1,9.788145447E0,9.892498061E0
5.667240000E0,1.384620667E0,-3.430865479E-1,9.774972839E0,9.878510858E0
5.677271000E0,1.381926270E0,-3.430865479E-1,9.774673462E0,9.877837308E0
5.687303000E0,1.373244324E0,-3.460803223E-1,9.757908325E0,9.860139271E0
5.697334000E0,1.387165375E0,-3.366499329E-1,9.744436340E0,9.848431375E0
5.707365000E0,1.382674713E0,-3.321592712E-1,9.749226379E0,9.852387231E0
5.717397000E0,1.375190277E0,-3.165916443E-1,9.750124512E0,9.851715920E0
5.727428000E0,1.368603973E0,-3.164419556E-1,9.740544434E0,9.841311813E0
5.737459000E0,1.357826385E0,-3.216810608E-1,9.733658752E0,9.833172627E0
5.747490917E0,1.347647552E0,-3.275189209E-1,9.743538208E0,9.841745749E0
5.757521917E0,1.380429382E0,-3.338058472E-1,9.779014435E0,9.881605889E0
5.767552917E0,1.394350433E0,-3.314108276E-1,9.792336731E0,9.896661302E0
5.777584917E0,1.399140472E0,-3.073109436E-1,9.789342957E0,9.893597404E0
5.787615917E0,1.371448059E0,-2.743794250E-1,9.762548676E0,9.862226447E0
5.797646917E0,1.338815918E0,-2.701881409E-1,9.738897858E0,9.834203637E0
5.807678917E0,1.311123505E0,-2.868035889E-1,9.758357391E0,9.850220308E0
5.817709917E0,1.338217163E0,-3.412902832E-1,9.781409454E0,9.878424730E0
5.827740917E0,1.351838837E0,-3.353027344E-1,9.745334473E0,9.844360830E0
5.837772917E0,1.353635101E0,-3.146456909E-1,9.721533966E0,9.820364176E0
5.847803917E0,1.353934479E0,-3.293151855E-1,9.751621399E0,9.850670382E0
5.857835917E0,1.383423157E0,-3.728746033E-1,9.798324280E0,9.902527647E0
5.867866917E0,1.421743469E0,-3.802093506E-1,9.790690155E0,9.900683176E0
5.877897917E0,1.408870239E0,-3.549119568E-1,9.775122528E0,9.882504657E0
5.887929917E0,1.377585297E0,-3.656895447E-1,9.734407196E0,9.838198694E0
5.897960917E0,1.358574829E0,-3.866459656E-1,9.765392761E0,9.867021661E0
5.907991917E0,1.373394012E0,-4.376898193E-1,9.796827393E0,9.902303290E0
5.918023917E0,1.404080200E0,-4.569996643E-1,9.817035370E0,9.927460569E0
5.928054917E0,1.425335999E0,-4.141886902E-1,9.815538483E0,9.927131040E0
5.938085917E0,1.427880707E0,-3.478765869E-1,9.811646576E0,9.921102255E0
5.948117917E0,1.393302612E0,-3.053649902E-1,9.763147430E0,9.866792168E0
5.958148917E0,1.396595764E0,-2.661465454E-1,9.725276184E0,9.828647444E0
5.968179917E0,1.391805725E0,-2.192939758E-1,9.729168091E0,9.830662478E0
5.978211917E0,1.385668488E0,-2.001338196E-1,9.740993500E0,9.841091660E0
5.988242917E0,1.369202728E0,-1.893562317E-1,9.749376068E0,9.846872885E0
5.998273917E0,1.350192261E0,-1.932481384E-1,9.768536224E0,9.863298837E0
6.008305917E0,1.313817902E0,-2.290237427E-1,9.772278442E0,9.862859388E0
6.018336917E0,1.301244049E0,-2.667453003E-1,9.799372101E0,9.888987951E0
6.028367917E0,1.331780548E0,-2.927911377E-1,9.791139221E0,9.885634695E0
6.038399917E0,1.344504089E0,-3.315605164E-1,9.806557159E0,9.903847078E0
6.048430917E0,1.365460510E0,-3.746708679E-1,9.800419922E0,9.902176090E0
6.058461917E0,1.399439850E0,-4.073030090E-1,9.795031128E0,9.902876473E0
6.068493917E0,1.411864014E0,-4.207749939E-1,9.785900116E0,9.896173638E0
6.078524917E0,1.410965881E0,-4.254153442E-1,9.766739960E0,9.877297828E0
6.088555917E0,1.431323547E0,-4.099974060E-1,9.761800232E0,9.874691324E0
6.098587917E0,1.442999268E0,-4.138893127E-1,9.762698364E0,9.877440488E0
6.108618917E0,1.440903625E0,-3.867956543E-1,9.754465485E0,9.867898004E0
6.118649917E0,1.434167633E0,-3.469784546E-1,9.770781555E0,9.881568856E0
6.128681917E0,1.400787048E0,-3.082090759E-1,9.777218170E0,9.881861785E0
6.138712917E0,1.403032379E0,-2.653981018E-1,9.781858521E0,9.885529431E0
6.148744917E0,1.397044830E0,-2.263293457E-1,9.760453033E0,9.862525166E0
6.158775917E0,1.382824402E0,-2.038760376E-1,9.781110077E0,9.880479902E0
6.168806917E0,1.337618408E0,-1.878593445E-1,9.756860504E0,9.849915788E0
6.178838917E0,1.317709808E0,-1.883084106E-1,9.757459259E0,9.847833792E0
6.188869917E0,1.315614166E0,-2.133064270E-1,9.722132721E0,9.813062973E0
6.198900917E0,1.305884399E0,-2.354603577E-1,9.745184784E0,9.835110682E0
6.208932917E0,1.333427124E0,-2.736309814E-1,9.764045563E0,9.858472882E0
6.218963917E0,1.357377319E0,-3.269201660E-1,9.803862762E0,9.902781177E0
6.228994917E0,1.391206970E0,-3.820056152E-1,9.845326538E0,9.950469324E0
6.239026917E0,1.423988800E0,-4.017645264E-1,9.862690430E0,9.973054765E0
6.249057917E0,1.438658295E0,-4.082011414E-1,9.845775604E0,9.958697862E0
6.259088917E0,1.428180084E0,-3.972738647E-1,9.806257782E0,9.917671933E0
6.269120917E0,1.403032379E0,-3.616479492E-1,9.754465485E0,9.861484979E0
6.279151917E0,1.366358643E0,-3.409909058E-1,9.725575562E0,9.827005177E0
6.289182917E0,1.338666229E0,-3.254232788E-1,9.700427856E0,9.797766489E0
6.299214917E0,1.313518524E0,-2.911445618E-1,9.713450775E0,9.806182847E0
6.309245917E0,1.342408447E0,-2.847079468E-1,9.734107819E0,9.830359814E0
6.319276917E0,1.391057281E0,-2.600093079E-1,9.756860504E0,9.858953905E0
6.329308917E0,1.418600006E0,-2.544708252E-1,9.768835602E0,9.874580011E0
6.339339917E0,1.412163391E0,-2.481838989E-1,9.758656769E0,9.863426515E0
6.349371917E0,1.405577087E0,-2.737806702E-1,9.757908325E0,9.862422506E0
6.359402917E0,1.403182068E0,-2.848576355E-1,9.757010193E0,9.861506563E0
6.369433917E0,1.389111328E0,-3.022215271E-1,9.749974823E0,9.853069429E0
6.379465917E0,1.381327515E0,-3.140469360E-1,9.759554901E0,9.861825543E0
6.389496917E0,1.377136230E0,-3.234773254E-1,9.770631866E0,9.872506715E0
6.399527917E0,1.382375336E0,-3.192860413E-1,9.746382294E0,9.849105186E0
6.409559917E0,1.386566620E0,-3.249742126E-1,9.763596497E0,9.866913995E0
6.419590917E0,1.376088409E0,-3.400927734E-1,9.762099609E0,9.864475211E0
6.429621917E0,1.371448059E0,-3.414399719E-1,9.777218170E0,9.878838301E0
6.439653917E0,1.359323273E0,-3.405418396E-1,9.785151672E0,9.884984661E0
6.449684917E0,1.347198486E0,-3.481759644E-1,9.793983307E0,9.892334370E0
6.459715917E0,1.342558136E0,-3.143463135E-1,9.781409454E0,9.878119602E0
6.469747917E0,1.346899109E0,-3.068618774E-1,9.773625641E0,9.870767933E0
6.479778917E0,1.346749420E0,-2.881507874E-1,9.769733734E0,9.866329718E0
6.489809917E0,1.338067474E0,-2.826123047E-1,9.770332489E0,9.865581140E0
6.499841917E0,1.353485413E0,-2.857557678E-1,9.749825134E0,9.847470196E0
6.509872917E0,1.391805725E0,-2.932402039E-1,9.759554901E0,9.862658103E0
6.519903917E0,1.391955414E0,-2.894979858E-1,9.761800232E0,9.864790557E0
6.529935917E0,1.401834869E0,-2.942880249E-1,9.762099609E0,9.866627348E0
6.539966917E0,1.403481445E0,-3.219804382E-1,9.780211945E0,9.885645009E0
6.549997917E0,1.403182068E0,-3.370989990E-1,9.775122528E0,9.881071606E0
6.560029917E0,1.389410706E0,-3.302133179E-1,9.764644318E0,9.868524793E0
6.570060917E0,1.381626892E0,-3.487747192E-1,9.762548676E0,9.865996823E0
6.580091917E0,1.374292145E0,-3.450325012E-1,9.775421906E0,9.877580663E0
6.590123917E0,1.382674713E0,-3.351530457E-1,9.760902100E0,9.864042109E0
6.600154917E0,1.369502106E0,-3.442840576E-1,9.757608948E0,9.859259602E0
6.610185917E0,1.359922028E0,-3.197351074E-1,9.730365601E0,9.830139021E0
6.620217917E0,1.363364868E0,-3.203338623E-1,9.752220154E0,9.852267530E0
6.630248917E0,1.394500122E0,-3.061134338E-1,9.786947937E0,9.890535170E0
6.640280917E0,1.416803741E0,-2.977308655E-1,9.800569611E0,9.906923902E0
6.650311917E0,1.409169617E0,-2.709365845E-1,9.787995758E0,9.892624859E0
6.660342917E0,1.362766113E0,-2.712359619E-1,9.764494629E0,9.862862454E0
6.670374917E0,1.307231598E0,-2.875520325E-1,9.774074707E0,9.865296600E0
6.680405917E0,1.287622375E0,-3.077600098E-1,9.785600739E0,9.874749081E0
6.690436917E0,1.302441559E0,-3.342549133E-1,9.782906342E0,9.874884144E0
6.700468917E0,1.317111053E0,-3.303630066E-1,9.772428131E0,9.866320126E0
6.710499917E0,1.326691132E0,-3.201841736E-1,9.755363617E0,9.850367839E0
6.720530917E0,1.354682922E0,-3.399430847E-1,9.802814941E0,9.901813364E0
6.730562917E0,1.405577087E0,-3.614982605E-1,9.822124786E0,9.928769474E0
6.740593917E0,1.468296661E0,-3.589535522E-1,9.819580078E0,9.935235058E0
6.750624667E0,1.460662537E0,-3.356021118E-1,9.760003967E0,9.874403337E0
6.760656667E0,1.396146698E0,-3.591032410E-1,9.733059998E0,9.839239689E0
6.770687667E0,1.376238098E0,-3.698808289E-1,9.711504822E0,9.815506560E0
6.780718667E0,1.389710083E0,-4.104464722E-1,9.723629608E0,9.831008757E0
6.790750667E0,1.413360901E0,-4.110452271E-1,9.756710815E0,9.867114733E0
6.800781667E0,1.430724792E0,-3.631448364E-1,9.775870972E0,9.886683006E0
6.810812667E0,1.412911835E0,-3.017724609E-1,9.768236847E0,9.874504421E0
6.820844667E0,1.386267242E0,-2.665956116E-1,9.735604706E0,9.837418822E0
6.830875667E0,1.361867981E0,-2.291734314E-1,9.741592255E0,9.838995097E0
6.840906667E0,1.367556152E0,-2.291734314E-1,9.761949921E0,9.859938973E0
6.850938667E0,1.360820160E0,-2.303709412E-1,9.790839844E0,9.887641130E0
6.860969667E0,1.346749420E0,-2.218386841E-1,9.805808716E0,9.900344993E0
6.871000667E0,1.333277435E0,-2.369572449E-1,9.805659027E0,9.898723474E0
6.881032667E0,1.305135956E0,-2.442919922E-1,9.819580078E0,9.908946026E0
6.891063667E0,1.314865723E0,-2.802172852E-1,9.801916809E0,9.893683173E0
6.901095667E0,1.312171326E0,-3.056643677E-1,9.784702606E0,9.877025331E0
6.911126667E0,1.334175568E0,-3.394940186E-1,9.777367859E0,9.873813999E0
6.921157667E0,1.371148682E0,-3.742218018E-1,9.773026886E0,9.875836429E0
6.931189667E0,1.399439850E0,-3.963757324E-1,9.755064240E0,9.862901395E0
6.941220667E0,1.410217438E0,-4.123924255E-1,9.746382294E0,9.856507929E0
6.951251667E0,1.412762146E0,-4.167333984E-1,9.766440582E0,9.876888440E0
6.961283667E0,1.431922302E0,-4.239184570E-1,9.755812683E0,9.869447272E0
6.971314667E0,1.428030396E0,-3.938310242E-1,9.773326263E0,9.884952197E0
6.981345667E0,1.423240356E0,-3.656895447E-1,9.771230621E0,9.881107722E0
6.991377667E0,1.418450317E0,-3.502716064E-1,9.778265991E0,9.886818361E0
7.001408667E0,1.400936737E0,-3.001258850E-1,9.779313812E0,9.883707701E0
7.011439667E0,1.388512573E0,-2.751278687E-1,9.767638092E0,9.869671545E0
7.021471667E0,1.379082184E0,-2.365081787E-1,9.790690155E0,9.890167719E0
7.031502667E0,1.334924011E0,-1.995350647E-1,9.760453033E0,9.853338509E0
7.041533667E0,1.326541443E0,-2.188449097E-1,9.750723267E0,9.842977675E0
7.051565667E0,1.322350159E0,-2.442919922E-1,9.763895874E0,9.856061645E0
7.061596667E0,1.321002960E0,-2.881507874E-1,9.758806458E0,9.852024319E0
7.071627667E0,1.325343933E0,-2.775228882E-1,9.747430115E0,9.841033957E0
7.081659667E0,1.332079926E0,-3.013233948E-1,9.779613190E0,9.874516032E0
7.091690667E0,1.354682922E0,-3.658392334E-1,9.792037354E0,9.892067514E0
7.101722667E0,1.422791290E0,-3.838018799E-1,9.812544708E0,9.922583967E0
7.111753667E0,1.453178101E0,-4.005670166E-1,9.828561401E0,9.943480263E0
7.121784667E0,1.437909851E0,-4.049079895E-1,9.805060272E0,9.918202567E0
7.131816667E0,1.422342224E0,-3.972738647E-1,9.767638092E0,9.878645546E0
7.141847667E0,1.399140472E0,-3.626957703E-1,9.739047546E0,9.845719344E0
7.151878667E0,1.375789032E0,-3.525169373E-1,9.757459259E0,9.860277625E0
7.161910667E0,1.377136230E0,-3.254232788E-1,9.770781555E0,9.872718810E0
7.171941667E0,1.373693390E0,-3.064128113E-1,9.784702606E0,9.885409826E0
7.181972667E0,1.394649811E0,-2.815644836E-1,9.796677704E0,9.899455575E0
7.192004667E0,1.389261017E0,-2.695893860E-1,9.786349182E0,9.888142137E0
7.202035667E0,1.375339966E0,-2.665956116E-1,9.773026886E0,9.872927011E0
7.212066667E0,1.344653778E0,-2.700384521E-1,9.779463501E0,9.875166880E0
7.222098667E0,1.350641327E0,-3.068618774E-1,9.782756653E0,9.880320032E0
7.232129667E0,1.358275452E0,-3.438349915E-1,9.780511322E0,9.880361148E0
7.242160667E0,1.360969849E0,-3.435356140E-1,9.777068481E0,9.877313589E0
7.252192667E0,1.362616425E0,-3.668870544E-1,9.777218170E0,9.878528472E0
7.262223667E0,1.365759888E0,-3.938310242E-1,9.774673462E0,9.877481675E0
7.272254667E0,1.388213196E0,-4.110452271E-1,9.792336731E0,9.898785416E0
7.282286667E0,1.388063507E0,-4.251159668E-1,9.777966614E0,9.885144156E0
7.292317667E0,1.383423157E0,-4.361929321E-1,9.765991516E0,9.873130922E0
7.302348667E0,1.382225647E0,-4.149371338E-1,9.763446808E0,9.869529580E0
7.312380667E0,1.361718292E0,-3.947291565E-1,9.778715057E0,9.880959265E0
7.322411667E0,1.366658020E0,-3.794609070E-1,9.760303345E0,9.862822421E0
7.332443667E0,1.361119537E0,-3.644920349E-1,9.767937469E0,9.869047738E0
7.342474667E0,1.344653778E0,-3.555107117E-1,9.763596497E0,9.862164985E0
7.352505667E0,1.361718292E0,-3.332070923E-1,9.749974823E0,9.850244298E0
7.362537667E0,1.366807709E0,-3.088078308E-1,9.732610931E0,9.832967056E0
7.372568667E0,1.392404480E0,-3.329077148E-1,9.739795990E0,9.844452433E0
7.382599667E0,1.422342224E0,-3.421884155E-1,9.764644318E0,9.873622889E0
7.392631667E0,1.428180084E0,-3.640429688E-1,9.753267975E0,9.863998268E0
7.402662667E0,1.430425415E0,-3.870950317E-1,9.758207703E0,9.870084954E0
7.412693667E0,1.417851562E0,-3.827540588E-1,9.761800232E0,9.871653736E0
7.422725667E0,1.383123779E0,-3.852987671E-1,9.732012177E0,9.837354702E0
7.432756667E0,1.350940704E0,-3.704795837E-1,9.715247040E0,9.815718056E0
7.442787667E0,1.343456268E0,-3.683839417E-1,9.728868713E0,9.828095844E0
7.452819667E0,1.362915802E0,-3.656895447E-1,9.772428131E0,9.873784477E0
7.462850667E0,1.400038605E0,-3.529660034E-1,9.814640350E0,9.920275112E0
7.472881667E0,1.407373352E0,-3.294648743E-1,9.815987549E0,9.921837452E0
7.482913667E0,1.389261017E0,-3.076103210E-1,9.772727509E0,9.875772033E0
7.492944667E0,1.348246307E0,-2.932402039E-1,9.771380310E0,9.868314501E0
7.502975667E0,1.340013428E0,-2.827619934E-1,9.757459259E0,9.853101112E0
7.513007667E0,1.344803467E0,-3.233276367E-1,9.754166107E0,9.851740637E0
7.523038667E0,1.347497864E0,-3.306623840E-1,9.737101593E0,9.835458075E0
7.533069667E0,1.334924011E0,-3.305126953E-1,9.709708557E0,9.806615166E0
7.543101667E0,1.342707825E0,-3.483256531E-1,9.730515289E0,9.828892250E0
7.553132667E0,1.359772339E0,-3.728746033E-1,9.768685913E0,9.869915945E0
7.563164667E0,1.415007477E0,-4.090992737E-1,9.822873230E0,9.932695851E0
7.573195667E0,1.438358917E0,-3.957769775E-1,9.816586304E0,9.929294157E0
7.583226667E0,1.418001251E0,-3.896397400E-1,9.787397003E0,9.897256528E0
7.593258667E0,1.386267242E0,-4.092489624E-1,9.764644318E0,9.871043523E0
7.603289667E0,1.371448059E0,-4.334985352E-1,9.764045563E0,9.869416219E0
7.613320667E0,1.413959656E0,-4.432283020E-1,9.786648560E0,9.898192929E0
7.623352667E0,1.429676971E0,-4.314028931E-1,9.773026886E0,9.886462422E0
7.633383667E0,1.437011719E0,-3.773652649E-1,9.764344940E0,9.876732219E0
7.643414667E0,1.422791290E0,-3.161425781E-1,9.737400970E0,9.845875220E0
7.653446667E0,1.400487671E0,-2.782713318E-1,9.706565094E0,9.811024746E0
7.663477667E0,1.415306854E0,-2.562670898E-1,9.704020386E0,9.810034554E0
7.673508667E0,1.383872223E0,-2.296224976E-1,9.731263733E0,9.831852453E0
7.683540667E0,1.364113312E0,-2.345622253E-1,9.765243073E0,9.862849326E0
7.693571667E0,1.344653778E0,-2.484832764E-1,9.787846069E0,9.882902833E0
7.703602667E0,1.310225372E0,-2.535726929E-1,9.801767120E0,9.892200378E0
7.713634667E0,1.304088135E0,-2.752775574E-1,9.819280701E0,9.909323745E0
7.723665667E0,1.326840820E0,-3.094065857E-1,9.836345215E0,9.930253078E0
7.733696667E0,1.331331482E0,-3.478765869E-1,9.834099884E0,9.929903432E0
7.743728667E0,1.364412689E0,-3.686833191E-1,9.812544708E0,9.913807696E0
7.753760542E0,1.398092651E0,-3.876937866E-1,9.796228638E0,9.903083614E0
7.763791542E0,1.390159149E0,-4.031117249E-1,9.753267975E0,9.860085076E0
7.773823542E0,1.381177826E0,-4.198768616E-1,9.727521515E0,9.834054280E0
7.783854542E0,1.402134247E0,-4.293072510E-1,9.725425873E0,9.835354268E0
7.793885542E0,1.415905609E0,-4.239184570E-1,9.742939453E0,9.854408391E0
7.803917542E0,1.431024170E0,-3.908372498E-1,9.753717041E0,9.865879588E0
7.813948542E0,1.424138489E0,-3.556604004E-1,9.769733734E0,9.879390770E0
7.823980542E0,1.416654053E0,-3.156935120E-1,9.778715057E0,9.885840342E0
7.834011542E0,1.398242340E0,-2.914439392E-1,9.770781555E0,9.874623710E0
7.844042542E0,1.401385803E0,-2.856060791E-1,9.777367859E0,9.881415650E0
7.854074542E0,1.382674713E0,-2.573149109E-1,9.765243073E0,9.866000841E0
7.864105542E0,1.361867981E0,-2.306703186E-1,9.743238831E0,9.840660349E0
7.874136542E0,1.350491638E0,-2.290237427E-1,9.771380310E0,9.866922149E0
7.884168542E0,1.352587280E0,-2.667453003E-1,9.796827393E0,9.893354960E0
7.894199542E0,1.364113312E0,-2.880010986E-1,9.793833618E0,9.892569267E0
7.904230542E0,1.353485413E0,-2.761756897E-1,9.785750427E0,9.882768195E0
7.914262542E0,1.346899109E0,-3.044668579E-1,9.809401245E0,9.906118819E0
7.924293542E0,1.373693390E0,-3.534150696E-1,9.825867004E0,9.927718677E0
7.934324542E0,1.417851562E0,-3.668870544E-1,9.825717316E0,9.934265445E0
7.944356542E0,1.437909851E0,-3.923341370E-1,9.837842102E0,9.950107941E0
7.954387542E0,1.425934753E0,-3.936813354E-1,9.797126770E0,9.908176818E0
7.964418542E0,1.407822418E0,-3.725752258E-1,9.767039337E0,9.875010566E0
7.974450542E0,1.386416931E0,-3.670367432E-1,9.736652527E0,9.841710741E0
7.984481542E0,1.360969849E0,-3.703298950E-1,9.732760620E0,9.834429950E0
7.994512542E0,1.349144440E0,-3.442840576E-1,9.738598480E0,9.837632977E0
8.004544542E0,1.363664246E0,-3.164419556E-1,9.757010193E0,9.856924652E0
8.014575542E0,1.399439850E0,-2.911445618E-1,9.757459259E0,9.861602722E0
8.024607542E0,1.402283936E0,-2.871029663E-1,9.745933228E0,9.850484395E0
8.034638542E0,1.386566620E0,-2.914439392E-1,9.726324005E0,9.828981901E0
8.044669542E0,1.370699615E0,-3.414399719E-1,9.737700348E0,9.839624320E0
8.054701542E0,1.370400238E0,-3.574566650E-1,9.756411438E0,9.858668076E0
8.064732542E0,1.373094635E0,-3.954776001E-1,9.767638092E0,9.871602976E0
8.074763542E0,1.371448059E0,-4.085005188E-1,9.757608948E0,9.861981283E0
8.084795542E0,1.371298370E0,-4.005670166E-1,9.770931244E0,9.874816987E0
8.094826542E0,1.389261017E0,-4.031117249E-1,9.753417664E0,9.860106559E0
8.104857542E0,1.394500122E0,-4.126918030E-1,9.768236847E0,9.875899767E0
8.114889542E0,1.408421173E0,-4.270619202E-1,9.781110077E0,9.891215619E0
8.124920542E0,1.407373352E0,-4.282594299E-1,9.787696381E0,9.897631349E0
8.134951542E0,1.417252808E0,-4.064048767E-1,9.772877197E0,9.883465949E0
8.144983542E0,1.420396271E0,-3.951782227E-1,9.761351166E0,9.872065031E0
8.155014542E0,1.420845337E0,-3.923341370E-1,9.770482178E0,9.881044962E0
8.165045542E0,1.414857788E0,-4.029620361E-1,9.764943695E0,9.875136775E0
8.175077542E0,1.402733002E0,-3.803590393E-1,9.773625641E0,9.881097664E0
8.185108542E0,1.392703857E0,-3.959266663E-1,9.774972839E0,9.881623144E0
8.195139542E0,1.397493896E0,-3.885919189E-1,9.782457275E0,9.889411672E0
8.205171542E0,1.407073975E0,-3.876937866E-1,9.778864746E0,9.887181568E0
8.215202542E0,1.418450317E0,-4.005670166E-1,9.809251556E0,9.919368495E0
8.225233542E0,1.418450317E0,-4.040098572E-1,9.799372101E0,9.909738586E0
8.235265542E0,1.414259033E0,-4.067042542E-1,9.788744202E0,9.898739819E0
8.245296542E0,1.416055298E0,-4.239184570E-1,9.787546692E0,9.898534725E0
8.255328542E0,1.410666504E0,-4.074526978E-1,9.761949921E0,9.871760934E0
8.265359542E0,1.403032379E0,-3.921844482E-1,9.758656769E0,9.866797375E0
8.275390542E0,1.393901367E0,-3.668870544E-1,9.782307587E0,9.887927430E0
8.285422542E0,1.433119812E0,-3.725752258E-1,9.788295135E0,9.899664962E0
8.295453542E0,1.469943237E0,-3.731739807E-1,9.781858521E0,9.898724567E0
8.305484542E0,1.472937012E0,-3.784130859E-1,9.783355408E0,9.900847587E0
8.315516542E0,1.460961914E0,-3.514691162E-1,9.765392761E0,9.880325705E0
8.325547542E0,1.425934753E0,-3.543132019E-1,9.737251282E0,9.847481419E0
8.335578542E0,1.403331757E0,-3.805087280E-1,9.758058014E0,9.865790547E0
8.345610542E0,1.407223663E0,-4.207749939E-1,9.782307587E0,9.891959955E0
8.355641542E0,1.405577087E0,-4.028123474E-1,9.755962372E0,9.864923038E0
8.365672542E0,1.410367126E0,-3.917353821E-1,9.756261749E0,9.865456673E0
8.375704542E0,1.401834869E0,-3.772155762E-1,9.731413422E0,9.839097508E0
8.385735542E0,1.416654053E0,-4.318519592E-1,9.772428131E0,9.884015196E0
8.395766542E0,1.455573120E0,-4.870870972E-1,9.820927277E0,9.940148868E0
8.405798542E0,1.502126312E0,-4.912783813E-1,9.833201752E0,9.959397301E0
8.415829542E0,1.511856079E0,-4.912783813E-1,9.807455292E0,9.935453817E0
8.425860542E0,1.484463043E0,-4.727169800E-1,9.782906342E0,9.906177283E0
8.435892542E0,1.471440125E0,-4.540058899E-1,9.752519531E0,9.873342625E0
8.445923542E0,1.459914093E0,-4.613406372E-1,9.749226379E0,9.868718222E0
8.455955542E0,1.444047089E0,-4.198768616E-1,9.739945679E0,9.855359476E0
8.465986542E0,1.429527283E0,-3.486250305E-1,9.705517273E0,9.816422627E0
8.476017542E0,1.411714325E0,-2.909948730E-1,9.686207428E0,9.792866265E0
8.486049542E0,1.410666504E0,-2.743794250E-1,9.687704315E0,9.793716299E0
8.496080542E0,1.423689423E0,-2.751278687E-1,9.682165833E0,9.790144132E0
8.506111542E0,1.432970123E0,-2.945874023E-1,9.716893616E0,9.826403546E0
8.516143542E0,1.422342224E0,-3.164419556E-1,9.783056030E0,9.890974583E0
8.526174542E0,1.437760162E0,-3.432362366E-1,9.824519806E0,9.935097122E0
8.536205542E0,1.431922302E0,-3.730242920E-1,9.854307861E0,9.964784595E0
8.546237542E0,1.422342224E0,-4.062551880E-1,9.854607239E0,9.965008004E0
8.556268542E0,1.409918060E0,-4.153862000E-1,9.835147705E0,9.944372530E0
8.566299542E0,1.430874481E0,-4.206253052E-1,9.823322296E0,9.935893939E0
8.576331542E0,1.444047089E0,-4.233197021E-1,9.764794006E0,9.880064451E0
8.586362542E0,1.444196777E0,-4.119433594E-1,9.723779297E0,9.839069340E0
8.596393542E0,1.417851562E0,-3.971241760E-1,9.700727234E0,9.811835686E0
8.606425542E0,1.424886932E0,-4.025129700E-1,9.693542175E0,9.805971618E0
8.616456542E0,1.456321564E0,-4.189787292E-1,9.698032837E0,9.815714777E0
8.626487542E0,1.482966156E0,-4.143383789E-1,9.705966339E0,9.827341832E0
8.636519542E0,1.492546234E0,-4.266128540E-1,9.712702332E0,9.835968654E0
8.646550542E0,1.499581604E0,-4.159849548E-1,9.729317780E0,9.852990050E0
8.656581542E0,1.497785339E0,-4.204756165E-1,9.745484161E0,9.868871375E0
8.666613542E0,1.502874756E0,-3.891906738E-1,9.781409454E0,9.903841317E0
8.676644542E0,1.479223938E0,-3.641926575E-1,9.803413696E0,9.921071507E0
8.686675542E0,1.465901642E0,-3.297642517E-1,9.739197235E0,9.854419053E0
8.696707542E0,1.442999268E0,-3.465293884E-1,9.751322021E0,9.863600289E0
8.706738542E0,1.443598022E0,-3.872447205E-1,9.737251282E0,9.851294141E0
8.716770542E0,1.467548218E0,-3.841012573E-1,9.761351166E0,9.878522568E0
8.726801542E0,1.483864288E0,-3.513194275E-1,9.787247314E0,9.905326272E0
8.736832542E0,1.487157440E0,-3.243754578E-1,9.764794006E0,9.882715147E0
8.746864542E0,1.475781097E0,-3.393443298E-1,9.762548676E0,9.879293551E0
8.756895750E0,1.481319580E0,-3.909869385E-1,9.804012451E0,9.922995446E0
8.766926750E0,1.522184601E0,-4.343966675E-1,9.823022919E0,9.949750031E0
8.776958750E0,1.519939270E0,-4.119433594E-1,9.805958405E0,9.931602738E0
8.786989750E0,1.504521332E0,-4.111949158E-1,9.769284668E0,9.893007057E0
8.797020750E0,1.483564911E0,-4.296066284E-1,9.720186768E0,9.842131756E0
8.807052750E0,1.457968140E0,-4.320016479E-1,9.730515289E0,9.848615350E0
8.817083750E0,1.452729034E0,-4.275109863E-1,9.736203461E0,9.853265708E0
8.827114750E0,1.460213470E0,-4.049079895E-1,9.753567352E0,9.870574956E0
8.837146750E0,1.467099152E0,-3.944297791E-1,9.730515289E0,9.848394923E0
8.847177750E0,1.456620941E0,-3.686833191E-1,9.721084900E0,9.836521925E0
8.857208750E0,1.444945221E0,-3.652404785E-1,9.727222137E0,9.840737666E0
8.867240750E0,1.446891174E0,-3.797602844E-1,9.740993500E0,9.855184742E0
8.877271750E0,1.465003510E0,-3.887416077E-1,9.749376068E0,9.866493249E0
8.887303750E0,1.467248840E0,-3.857478333E-1,9.756710815E0,9.873956982E0
8.897334750E0,1.463207245E0,-3.987707520E-1,9.763746185E0,9.880826541E0
8.907365750E0,1.467847595E0,-4.046086121E-1,9.755962372E0,9.874061297E0
8.917397750E0,1.463656311E0,-4.170327759E-1,9.746981049E0,9.865082143E0
8.927428750E0,1.440304871E0,-4.276606750E-1,9.750573578E0,9.865650352E0
8.937459750E0,1.435664520E0,-4.156855774E-1,9.753267975E0,9.867125382E0
8.947491750E0,1.464704132E0,-4.058061218E-1,9.749525757E0,9.867283785E0
8.957522750E0,1.478176117E0,-4.053570557E-1,9.749076691E0,9.868830493E0
8.967553750E0,1.488804016E0,-3.848497009E-1,9.764045563E0,9.884393378E0
8.977585750E0,1.485061798E0,-3.782633972E-1,9.766889648E0,9.886385849E0
8.987616750E0,1.500928802E0,-3.670367432E-1,9.778265991E0,9.899595398E0
8.997647750E0,1.502425690E0,-3.525169373E-1,9.771529999E0,9.892641187E0
9.007679750E0,1.474583588E0,-3.441343689E-1,9.742640076E0,9.859607541E0
9.017710750E0,1.429527283E0,-3.763174438E-1,9.713001709E0,9.824844287E0
9.027741750E0,1.423090668E0,-3.921844482E-1,9.738748169E0,9.849985360E0
9.037773750E0,1.453926544E0,-4.129911804E-1,9.767338715E0,9.883590930E0
9.047804750E0,1.494342499E0,-4.076023865E-1,9.783505096E0,9.905360729E0
9.057835750E0,1.522034912E0,-4.017645264E-1,9.782307587E0,9.908155566E0
9.067867750E0,1.540746002E0,-3.861968994E-1,9.756561127E0,9.885015494E0
9.077898750E0,1.516945496E0,-3.622467041E-1,9.746531982E0,9.870523390E0
9.087930750E0,1.477577362E0,-3.799099731E-1,9.719138947E0,9.838151671E0
9.097961750E0,1.449435883E0,-3.927832031E-1,9.752369843E0,9.867312733E0
9.107992750E0,1.442849579E0,-3.881428528E-1,9.743388519E0,9.857286118E0
9.118024750E0,1.433568878E0,-3.611988831E-1,9.718689880E0,9.830489172E0
9.128055750E0,1.435215454E0,-3.597019958E-1,9.684111786E0,9.796491719E0
9.138086750E0,1.442400513E0,-3.784130859E-1,9.688602448E0,9.802690094E0
9.148118750E0,1.454225922E0,-4.484674072E-1,9.733808441E0,9.852051706E0
9.158149750E0,1.496587830E0,-4.875361633E-1,9.806257782E0,9.931775185E0
9.168180750E0,1.530118103E0,-5.083428955E-1,9.806407471E0,9.938073324E0
9.178212750E0,1.509610748E0,-4.748126221E-1,9.790690155E0,9.917761106E0
9.188243750E0,1.456022186E0,-4.300556946E-1,9.749675446E0,9.867173851E0
9.198274750E0,1.446741486E0,-4.442761230E-1,9.751621399E0,9.868361673E0
9.208306750E0,1.458417206E0,-4.272116089E-1,9.724078674E0,9.842113420E0
9.218337750E0,1.472338257E0,-3.906875610E-1,9.728419647E0,9.846957172E0
9.228368750E0,1.463806000E0,-3.068618774E-1,9.734407196E0,9.848633188E0
9.238400750E0,1.464105377E0,-2.489323425E-1,9.720785522E0,9.833577327E0
9.248431750E0,1.463955688E0,-2.389031982E-1,9.703721008E0,9.816437358E0
9.258462750E0,1.471290436E0,-2.689906311E-1,9.718091125E0,9.832514766E0
9.268494750E0,1.481618958E0,-2.885998535E-1,9.773026886E0,9.888909906E0
9.278525750E0,1.470392303E0,-3.420387268E-1,9.801318054E0,9.916898689E0
9.288556750E0,1.465153198E0,-3.751199341E-1,9.813442841E0,9.929302556E0
9.298588750E0,1.467398529E0,-4.173321533E-1,9.832153931E0,9.949807811E0
9.308619750E0,1.476679230E0,-4.463717651E-1,9.815089417E0,9.935583000E0
9.318651750E0,1.488504639E0,-4.607418823E-1,9.789642334E0,9.912871742E0
9.328682750E0,1.492695923E0,-4.439767456E-1,9.761650543E0,9.885093717E0
9.338713750E0,1.459764404E0,-4.191284180E-1,9.699829102E0,9.818007198E0
9.348745750E0,1.463057556E0,-4.233197021E-1,9.692644043E0,9.811579156E0
9.358776750E0,1.463207245E0,-4.174818420E-1,9.684560852E0,9.803366025E0
9.368807750E0,1.459914093E0,-4.065545654E-1,9.676327972E0,9.794281944E0
9.378839750E0,1.482217712E0,-4.191284180E-1,9.692045288E0,9.813683297E0
9.388870750E0,1.483265533E0,-4.257147217E-1,9.707463226E0,9.829351553E0
9.398901750E0,1.470991058E0,-4.279600525E-1,9.743238831E0,9.862944155E0
9.408933750E0,1.478774872E0,-4.387376404E-1,9.772128754E0,9.893117113E0
9.418964750E0,1.470841370E0,-4.321513367E-1,9.797276459E0,9.916489052E0
9.428995750E0,1.479822693E0,-4.177812195E-1,9.795480194E0,9.915434866E0
9.439027750E0,1.487157440E0,-3.866459656E-1,9.846524048E0,9.965699583E0
9.449058750E0,1.509011993E0,-3.420387268E-1,9.811047821E0,9.932309250E0
9.459089750E0,1.529968414E0,-3.415896606E-1,9.767488403E0,9.892487885E0
9.469121750E0,1.504371643E0,-3.535647583E-1,9.765392761E0,9.886912453E0
9.479152750E0,1.463057556E0,-3.077600098E-1,9.752519531E0,9.866452799E0
9.489183750E0,1.430724792E0,-3.002755737E-1,9.726922760E0,9.836166186E0
9.499215750E0,1.436263275E0,-2.890489197E-1,9.748178558E0,9.857656247E0
9.509246750E0,1.500330048E0,-3.430865479E-1,9.810748444E0,9.930734296E0
9.519278750E0,1.570234680E0,-3.806584167E-1,9.849517822E0,9.981159207E0
9.529309750E0,1.598675537E0,-3.406915283E-1,9.820627899E0,9.955730336E0
9.539340750E0,1.547781372E0,-3.188369751E-1,9.751920776E0,9.879131694E0
9.549372750E0,1.477427673E0,-3.359014893E-1,9.705068207E0,9.822625476E0
9.559403750E0,1.435365143E0,-3.439846802E-1,9.713151398E0,9.824658194E0
9.569434750E0,1.451381836E0,-3.879931641E-1,9.772128754E0,9.886938268E0
9.579466750E0,1.482816467E0,-3.845503235E-1,9.780062256E0,9.899305095E0
9.589497750E0,1.491049347E0,-3.829037476E-1,9.749974823E0,9.870757442E0
9.599528750E0,1.463207245E0,-3.692820740E-1,9.725126495E0,9.841515637E0
9.609560750E0,1.452429657E0,-3.935316467E-1,9.745484161E0,9.860977670E0
9.619591750E0,1.437909851E0,-4.186793518E-1,9.740095367E0,9.854559092E0
9.629622750E0,1.420545959E0,-4.315525818E-1,9.748777313E0,9.861178812E0
9.639654750E0,1.424737244E0,-4.176315308E-1,9.754166107E0,9.866511478E0
9.649685750E0,1.423539734E0,-4.123924255E-1,9.742490387E0,9.854575172E0
9.659716750E0,1.437909851E0,-4.093986511E-1,9.737999725E0,9.852097779E0
9.669748750E0,1.439406738E0,-3.951782227E-1,9.724827118E0,9.838715366E0
9.679779750E0,1.462159424E0,-4.207749939E-1,9.727521515E0,9.845792837E0
9.689810750E0,1.467099152E0,-4.016148376E-1,9.739646301E0,9.857706857E0
9.699842750E0,1.467997284E0,-3.755690002E-1,9.746232605E0,9.863321859E0
9.709873750E0,1.479822693E0,-3.635939026E-1,9.744885406E0,9.863309146E0
9.719905750E0,1.474733276E0,-3.329077148E-1,9.760153656E0,9.876551279E0
9.729936750E0,1.472787323E0,-3.228785706E-1,9.768087158E0,9.883768502E0
9.739967750E0,1.486858063E0,-3.288661194E-1,9.776020660E0,9.893911248E0
9.749999042E0,1.497186584E0,-3.406915283E-1,9.780661011E0,9.900452929E0
9.760030042E0,1.466799774E0,-3.171903992E-1,9.746082916E0,9.860945367E0
9.770061042E0,1.442999268E0,-3.418890381E-1,9.755363617E0,9.867434028E0
9.780093042E0,1.441801758E0,-3.674858093E-1,9.767638092E0,9.880313357E0
9.790124042E0,1.447340240E0,-3.749702454E-1,9.786798248E0,9.900344257E0
9.800155042E0,1.460662537E0,-3.640429688E-1,9.762099609E0,9.877482023E0
9.810187042E0,1.460213470E0,-3.601510620E-1,9.730664978E0,9.846206025E0
9.820218042E0,1.444795532E0,-3.626957703E-1,9.705666962E0,9.819315329E0
9.830249042E0,1.461860046E0,-3.849993896E-1,9.712702332E0,9.829641189E0
9.840281042E0,1.467398529E0,-4.269122314E-1,9.740095367E0,9.859258099E0
9.850312042E0,1.484013977E0,-4.248165894E-1,9.736203461E0,9.857810327E0
9.860343042E0,1.451531525E0,-3.745211792E-1,9.693093109E0,9.808326254E0
9.870375042E0,1.428928528E0,-3.580554199E-1,9.698631592E0,9.809867235E0
9.880406042E0,1.435963898E0,-3.897894287E-1,9.759704590E0,9.872474958E0
9.890437042E0,1.480271759E0,-4.436773682E-1,9.823022919E0,9.943833936E0
9.900469042E0,1.515149231E0,-4.219725037E-1,9.779613190E0,9.905280012E0
9.910500042E0,1.484762421E0,-4.092489624E-1,9.742640076E0,9.863622043E0
9.920532042E0,1.432521057E0,-3.986210632E-1,9.739047546E0,9.851906538E0
9.930563042E0,1.433269501E0,-3.912863159E-1,9.740843811E0,9.853497074E0
9.940594042E0,1.472487946E0,-4.040098572E-1,9.732910309E0,9.851953501E0
9.950626042E0,1.478176117E0,-3.848497009E-1,9.749076691E0,9.868009437E0
9.960657042E0,1.454076233E0,-3.201841736E-1,9.747579803E0,9.860637283E0
9.970688042E0,1.448537750E0,-2.698887634E-1,9.742789764E0,9.853580768E0
9.980720042E0,1.447340240E0,-2.374063110E-1,9.732910309E0,9.842799328E0
9.990751042E0,1.463506622E0,-2.457888794E-1,9.726324005E0,9.838884208E0
1.000078204E1,1.449286194E0,-2.555186462E-1,9.768685913E0,9.878914147E0
1.001081404E1,1.437161407E0,-2.888992310E-1,9.794282684E0,9.903376645E0
1.002084504E1,1.430575104E0,-3.275189209E-1,9.813891907E0,9.923018096E0
1.003087604E1,1.439855804E0,-3.628454590E-1,9.831704865E0,9.943201804E0
1.004090804E1,1.438957672E0,-3.701802063E-1,9.836345215E0,9.947930426E0
1.005093904E1,1.438957672E0,-3.770658875E-1,9.811347198E0,9.923472765E0
1.006097004E1,1.463207245E0,-3.773652649E-1,9.755812683E0,9.872145719E0
1.007100204E1,1.467697906E0,-3.986210632E-1,9.730964355E0,9.849096567E0
1.008103304E1,1.472487946E0,-3.800596619E-1,9.695488129E0,9.814028538E0
1.009106404E1,1.468596039E0,-3.749702454E-1,9.693841553E0,9.811622754E0
1.010109604E1,1.465302887E0,-3.724255371E-1,9.712852020E0,9.829817277E0
1.011112704E1,1.456770630E0,-3.688330078E-1,9.725874939E0,9.841283544E0
1.012115904E1,1.447789307E0,-3.799099731E-1,9.752519531E0,9.866714888E0
1.013119004E1,1.432071991E0,-3.954776001E-1,9.774523773E0,9.886786521E0
1.014122104E1,1.417552185E0,-3.869453430E-1,9.803563385E0,9.913073990E0
1.015125304E1,1.420246582E0,-3.620970154E-1,9.815388794E0,9.924216431E0
1.016128404E1,1.440155182E0,-3.403921509E-1,9.827812958E0,9.938602583E0
1.017131504E1,1.454824677E0,-2.902464294E-1,9.796827393E0,9.908510725E0
1.018134704E1,1.443148956E0,-2.441423035E-1,9.762249298E0,9.871362405E0
1.019137804E1,1.419947205E0,-2.384541321E-1,9.763147430E0,9.868746536E0
1.020140904E1,1.408271484E0,-2.303709412E-1,9.732760620E0,9.836814964E0
1.021144104E1,1.439706116E0,-2.457888794E-1,9.713301086E0,9.822493770E0
1.022147204E1,1.432521057E0,-2.847079468E-1,9.658964081E0,9.768764626E0
1.023150304E1,1.413061523E0,-3.025209045E-1,9.669442291E0,9.776828524E0
1.024153504E1,1.392254791E0,-3.704795837E-1,9.744735718E0,9.850660015E0
1.025156604E1,1.446442108E0,-4.351451111E-1,9.826914825E0,9.942323724E0
1.026159704E1,1.506916351E0,-4.649331665E-1,9.881551208E0,1.000659852E1
1.027162904E1,1.539249115E0,-4.737648010E-1,9.888287201E0,1.001858097E1
1.028166004E1,1.545086975E0,-4.447251892E-1,9.860744476E0,9.990963711E0
1.029169104E1,1.509760437E0,-4.026626587E-1,9.782157898E0,9.906166107E0
1.030172304E1,1.447340240E0,-3.800596619E-1,9.721683655E0,9.836176707E0
1.031175404E1,1.421743469E0,-3.342549133E-1,9.706714783E0,9.815976401E0
1.032178604E1,1.405577087E0,-3.106040955E-1,9.721234589E0,9.827233781E0
1.033181704E1,1.435365143E0,-2.944377136E-1,9.737101593E0,9.846731137E0
1.034184804E1,1.456770630E0,-2.731819153E-1,9.720635834E0,9.832983781E0
1.035188004E1,1.450483704E0,-2.818638611E-1,9.736802216E0,9.848282469E0
1.036191104E1,1.427581329E0,-2.987786865E-1,9.740245056E0,9.848839064E0
1.037194204E1,1.413211212E0,-3.086581421E-1,9.759255524E0,9.865875742E0
1.038197404E1,1.399589539E0,-3.276686096E-1,9.775571594E0,9.880689125E0
1.039200504E1,1.383722534E0,-3.510200500E-1,9.773775330E0,9.877478794E0
1.040203604E1,1.406624908E0,-3.597019958E-1,9.776918793E0,9.884134774E0
1.041206804E1,1.399290161E0,-3.442840576E-1,9.771679688E0,9.877361408E0
1.042209904E1,1.426234131E0,-3.535647583E-1,9.771230621E0,9.881098101E0
1.043213004E1,1.431922302E0,-3.582051086E-1,9.744286652E0,9.855446957E0
1.044216204E1,1.416953430E0,-3.588038635E-1,9.733059998E0,9.842202708E0
1.045219304E1,1.406624908E0,-3.510200500E-1,9.725425873E0,9.832889561E0
1.046222404E1,1.417402496E0,-3.635939026E-1,9.745035095E0,9.854285330E0
1.047225604E1,1.410965881E0,-3.600013733E-1,9.766141205E0,9.874104503E0
1.048228704E1,1.417851562E0,-3.532653809E-1,9.777517548E0,9.886098769E0
1.049231804E1,1.422192535E0,-3.502716064E-1,9.763746185E0,9.872996575E0
1.050235004E1,1.426982574E0,-3.594026184E-1,9.785151672E0,9.895182806E0
1.051238104E1,1.444795532E0,-3.505709839E-1,9.782307587E0,9.894638744E0
1.052241304E1,1.447639618E0,-3.498225403E-1,9.788145447E0,9.900799339E0
1.053244404E1,1.427431641E0,-3.260220337E-1,9.780062256E0,9.889058053E0
1.054247504E1,1.427431641E0,-3.231779480E-1,9.754615173E0,9.863798571E0
1.055250704E1,1.418899384E0,-3.290158081E-1,9.734257507E0,9.842626483E0
1.056253804E1,1.419947205E0,-3.317102051E-1,9.760003967E0,9.868331124E0
1.057256904E1,1.437760162E0,-3.207829285E-1,9.784253540E0,9.894527442E0
1.058260104E1,1.452729034E0,-3.306623840E-1,9.779762878E0,9.892599316E0
1.059263204E1,1.431772614E0,-3.138972473E-1,9.755363617E0,9.864868149E0
1.060266304E1,1.413360901E0,-3.252735901E-1,9.724677429E0,9.832229811E0
1.061269504E1,1.395697632E0,-3.465293884E-1,9.743687897E0,9.849238972E0
1.062272604E1,1.406325531E0,-3.724255371E-1,9.779463501E0,9.887080390E0
1.063275704E1,1.407972107E0,-3.429368591E-1,9.763147430E0,9.870108353E0
1.064278904E1,1.402882690E0,-3.173400879E-1,9.726773071E0,9.832542853E0
1.065282004E1,1.409169617E0,-3.597019958E-1,9.786349182E0,9.893825087E0
1.066285104E1,1.432970123E0,-3.981719971E-1,9.826465759E0,9.938378823E0
1.067288304E1,1.482068024E0,-3.960763550E-1,9.839937744E0,9.958803990E0
1.068291404E1,1.483564911E0,-3.751199341E-1,9.768236847E0,9.887372295E0
1.069294604E1,1.415456543E0,-3.676354980E-1,9.712702332E0,9.822182022E0
1.070297704E1,1.401086426E0,-3.989204407E-1,9.729766846E0,9.838218516E0
1.071300804E1,1.429676971E0,-4.336482239E-1,9.749376068E0,9.863182080E0
1.072304004E1,1.481319580E0,-4.348457336E-1,9.792785797E0,9.913730487E0
1.073307104E1,1.494043121E0,-4.058061218E-1,9.788893890E0,9.910564417E0
1.074310204E1,1.467697906E0,-3.362008667E-1,9.748477936E0,9.864075741E0
1.075313367E1,1.425186310E0,-2.830613708E-1,9.717492371E0,9.825524807E0
1.076316467E1,1.441951447E0,-2.483335876E-1,9.688003693E0,9.797872682E0
1.077319567E1,1.419647827E0,-2.363584900E-1,9.719438324E0,9.825413305E0
1.078322767E1,1.426683197E0,-2.255809021E-1,9.736502838E0,9.843058427E0
1.079325867E1,1.418300629E0,-2.347119141E-1,9.785001984E0,9.890041970E0
1.080328967E1,1.387015686E0,-2.562670898E-1,9.795629883E0,9.896658534E0
1.081332167E1,1.383123779E0,-2.691403198E-1,9.811646576E0,9.912309339E0
1.082335267E1,1.377585297E0,-2.990780640E-1,9.810898132E0,9.911655316E0
1.083338367E1,1.377136230E0,-3.287164307E-1,9.822124786E0,9.923643182E0
1.084341567E1,1.382225647E0,-3.492237854E-1,9.766889648E0,9.870392008E0
1.085344667E1,1.409618683E0,-3.668870544E-1,9.759405212E0,9.867503283E0
1.086347767E1,1.398092651E0,-3.764671326E-1,9.737101593E0,9.844162636E0
1.087350967E1,1.400787048E0,-3.852987671E-1,9.725276184E0,9.833191565E0
1.088354067E1,1.420995026E0,-3.947291565E-1,9.727970581E0,9.839128498E0
1.089357267E1,1.427880707E0,-3.893403625E-1,9.735904083E0,9.847753934E0
1.090360367E1,1.441801758E0,-3.884422302E-1,9.746981049E0,9.860695677E0
1.091363467E1,1.445543976E0,-3.788621521E-1,9.745035095E0,9.858947354E0
1.092366667E1,1.446142731E0,-3.475772095E-1,9.787995758E0,9.900353513E0
1.093369767E1,1.450783081E0,-3.415896606E-1,9.784552917E0,9.897420413E0
1.094372867E1,1.440753937E0,-3.303630066E-1,9.800719299E0,9.911559434E0
1.095376067E1,1.453776855E0,-3.104544067E-1,9.796677704E0,9.908821480E0
1.096379167E1,1.428329773E0,-2.887495422E-1,9.753866730E0,9.862120382E0
1.097382267E1,1.391057281E0,-2.408491516E-1,9.793234863E0,9.894468038E0
1.098385467E1,1.375040588E0,-2.374063110E-1,9.746082916E0,9.845467515E0
1.099388567E1,1.382075958E0,-2.071691895E-1,9.739197235E0,9.838954000E0
1.100391667E1,1.401236115E0,-2.279759216E-1,9.736353149E0,9.839309342E0
1.101394867E1,1.439706116E0,-3.043171692E-1,9.758806458E0,9.869126918E0
1.102397967E1,1.449735260E0,-3.149450684E-1,9.764494629E0,9.876551933E0
1.103401067E1,1.453327789E0,-3.350033569E-1,9.783355408E0,9.896384792E0
1.104404267E1,1.451232147E0,-3.643423462E-1,9.817035370E0,9.930408025E0
1.105407367E1,1.444496155E0,-3.888912964E-1,9.811347198E0,9.924733721E0
1.106410567E1,1.441502380E0,-3.887416077E-1,9.798473969E0,9.911566035E0
1.107413667E1,1.444496155E0,-3.697311401E-1,9.789941711E0,9.902839440E0
1.108416767E1,1.435215454E0,-3.421884155E-1,9.763147430E0,9.874005472E0
1.109419967E1,1.416654053E0,-3.221301270E-1,9.743388519E0,9.851106352E0
1.110423067E1,1.412612457E0,-3.188369751E-1,9.746232605E0,9.853232006E0
1.111426167E1,1.399140472E0,-3.159928894E-1,9.763746185E0,9.868545239E0
1.112429367E1,1.407373352E0,-3.138972473E-1,9.762698364E0,9.868612394E0
1.113432467E1,1.412911835E0,-3.116519165E-1,9.786049805E0,9.892432337E0
1.114435567E1,1.411714325E0,-3.311114502E-1,9.785750427E0,9.892597412E0
1.115438767E1,1.435514832E0,-3.204835510E-1,9.792336731E0,9.902185173E0
1.116441867E1,1.418749695E0,-3.248245239E-1,9.773176575E0,9.880958558E0
1.117444967E1,1.396296387E0,-3.074606323E-1,9.715995483E0,9.820628487E0
1.118448167E1,1.387015686E0,-3.269201660E-1,9.729168091E0,9.832975188E0
1.119451267E1,1.392703857E0,-3.424877930E-1,9.749675446E0,9.854597567E0
1.120454367E1,1.412462769E0,-3.225791931E-1,9.760453033E0,9.867398433E0
1.121457567E1,1.449286194E0,-3.046165466E-1,9.786199493E0,9.897622050E0
1.122460667E1,1.453477478E0,-3.101550293E-1,9.780211945E0,9.892488999E0
1.123463867E1,1.431922302E0,-3.068618774E-1,9.773625641E0,9.882728563E0
1.124466967E1,1.410666504E0,-3.237767029E-1,9.763596497E0,9.870290162E0
1.125470067E1,1.393152924E0,-3.237767029E-1,9.769584045E0,9.873726695E0
1.126473267E1,1.401236115E0,-3.104544067E-1,9.772877197E0,9.877700810E0
1.127476367E1,1.405726776E0,-3.106040955E-1,9.777667236E0,9.883082478E0
1.128479467E1,1.412762146E0,-3.038681030E-1,9.774823151E0,9.881062713E0
1.129482667E1,1.399589539E0,-2.999761963E-1,9.765841827E0,9.870182531E0
1.130485767E1,1.408421173E0,-2.950364685E-1,9.763446808E0,9.868920422E0
1.131488867E1,1.409319305E0,-3.094065857E-1,9.774374084E0,9.880298684E0
1.132492067E1,1.408570862E0,-3.405418396E-1,9.784702606E0,9.891432945E0
1.133495167E1,1.424288177E0,-3.451821899E-1,9.773176575E0,9.882445442E0
1.134498267E1,1.422192535E0,-3.387455750E-1,9.766590271E0,9.875407115E0
1.135501467E1,1.431922302E0,-3.267704773E-1,9.768386536E0,9.878185863E0
1.136504567E1,1.423240356E0,-3.255729675E-1,9.764344940E0,9.872894357E0
1.137507667E1,1.432521057E0,-3.104544067E-1,9.756261749E0,9.865756020E0
1.138510867E1,1.418749695E0,-2.989283752E-1,9.744136963E0,9.851416854E0
1.139513967E1,1.436562653E0,-2.878514099E-1,9.756860504E0,9.866250432E0
1.140517167E1,1.430575104E0,-2.805166626E-1,9.765692139E0,9.873903872E0
1.141520267E1,1.411564636E0,-2.971321106E-1,9.751471710E0,9.857586050E0
1.142523367E1,1.415306854E0,-2.966830444E-1,9.765093384E0,9.871583617E0
1.143526567E1,1.414408722E0,-3.053649902E-1,9.769733734E0,9.876309890E0
1.144529667E1,1.381926270E0,-2.911445618E-1,9.756411438E0,9.858095633E0
1.145532767E1,1.390757904E0,-2.980302429E-1,9.770631866E0,9.873615176E0
1.146535967E1,1.418150940E0,-3.040177917E-1,9.805209961E0,9.911897966E0
1.147539067E1,1.438358917E0,-2.933898926E-1,9.804910583E0,9.914193137E0
1.148542167E1,1.427281952E0,-2.646496582E-1,9.760303345E0,9.867659023E0
1.149545367E1,1.397643585E0,-2.526745605E-1,9.749525757E0,9.852436476E0
1.150548467E1,1.362317047E0,-2.495310974E-1,9.727820892E0,9.825918421E0
1.151551567E1,1.361119537E0,-2.869532776E-1,9.765392761E0,9.863968996E0
1.152554767E1,1.379980316E0,-3.124003601E-1,9.789193268E0,9.890917273E0
1.153557867E1,1.385668488E0,-2.775228882E-1,9.722731476E0,9.824897122E0
1.154560967E1,1.375789032E0,-2.835104370E-1,9.739496613E0,9.840272755E0
1.155564167E1,1.411864014E0,-3.195854187E-1,9.795031128E0,9.901420586E0
1.156567267E1,1.470991058E0,-3.465293884E-1,9.810748444E0,9.926463738E0
1.157570367E1,1.486558685E0,-3.269201660E-1,9.822274475E0,9.939507502E0
1.158573567E1,1.463506622E0,-3.129991150E-1,9.722881165E0,9.837389807E0
1.159576667E1,1.417252808E0,-3.088078308E-1,9.673483887E0,9.781628612E0
1.160579867E1,1.397493896E0,-3.520678711E-1,9.709558868E0,9.815929625E0
1.161582967E1,1.425186310E0,-4.128414917E-1,9.769883423E0,9.881913591E0
1.162586067E1,1.469793549E0,-4.116439819E-1,9.812395020E0,9.930399784E0
1.163589267E1,1.482068024E0,-3.652404785E-1,9.837542725E0,9.955258565E0
1.164592367E1,1.464404755E0,-3.134481812E-1,9.801617432E0,9.915363600E0
1.165595467E1,1.437011719E0,-2.737806702E-1,9.761949921E0,9.870948525E0
1.166598667E1,1.412462769E0,-2.360591125E-1,9.736951904E0,9.841697382E0
1.167601767E1,1.417402496E0,-2.168989563E-1,9.742340698E0,9.847297968E0
1.168604867E1,1.430126038E0,-1.806742859E-1,9.744885406E0,9.850923574E0
1.169608067E1,1.409618683E0,-1.604663086E-1,9.743238831E0,9.845987872E0
1.170611167E1,1.383872223E0,-1.725910950E-1,9.758058014E0,9.857209860E0
1.171614267E1,1.371597748E0,-1.907034302E-1,9.773625641E0,9.871241378E0
1.172617467E1,1.357077942E0,-2.100132751E-1,9.783804474E0,9.879706276E0
1.173620567E1,1.352587280E0,-2.465373230E-1,9.793833618E0,9.889866022E0
1.174623767E1,1.386416931E0,-2.966830444E-1,9.790839844E0,9.892963033E0
1.175626863E1,1.411265259E0,-3.523672485E-1,9.783804474E0,9.891342795E0
1.176629963E1,1.414857788E0,-3.608995056E-1,9.779613190E0,9.888018262E0
1.177633163E1,1.455124054E0,-3.923341370E-1,9.770631866E0,9.886180211E0
1.178636263E1,1.437460785E0,-3.829037476E-1,9.744136963E0,9.857033729E0
1.179639363E1,1.434167633E0,-3.891906738E-1,9.755662994E0,9.868194700E0
1.180642562E1,1.445094910E0,-3.782633972E-1,9.745484161E0,9.859302411E0
1.181645663E1,1.447040863E0,-3.604504395E-1,9.748028870E0,9.861435931E0
1.182648763E1,1.438059540E0,-3.225791931E-1,9.774523773E0,9.885008223E0
1.183651963E1,1.443897400E0,-2.926414490E-1,9.774224396E0,9.884631569E0
1.184655062E1,1.447489929E0,-2.631527710E-1,9.798773346E0,9.908604118E0
1.185658163E1,1.461261292E0,-2.197430420E-1,9.817185059E0,9.927773871E0
1.186661363E1,1.449585571E0,-1.936972046E-1,9.782606964E0,9.891320233E0
1.187664463E1,1.398541718E0,-1.556762695E-1,9.809401245E0,9.909818708E0
1.188667562E1,1.354533234E0,-1.532812500E-1,9.734107819E0,9.829095098E0
1.189670763E1,1.356179810E0,-1.826202393E-1,9.739795990E0,9.835456256E0
1.190673863E1,1.392554169E0,-2.436932373E-1,9.758656769E0,9.860526124E0
1.191677063E1,1.441203003E0,-2.842588806E-1,9.775272217E0,9.885029900E0
1.192680162E1,1.449136505E0,-3.245251465E-1,9.774374084E0,9.886541454E0
1.193683263E1,1.423689423E0,-3.517684937E-1,9.746681671E0,9.856390630E0
1.194686463E1,1.418899384E0,-3.772155762E-1,9.774523773E0,9.884173311E0
1.195689563E1,1.432071991E0,-4.077520752E-1,9.767039337E0,9.879886100E0
1.196692662E1,1.465153198E0,-4.096980286E-1,9.766889648E0,9.884667914E0
1.197695863E1,1.472038879E0,-3.978726196E-1,9.753866730E0,9.872341023E0
1.198698963E1,1.470991058E0,-3.629951477E-1,9.727371826E0,9.844660625E0
1.199702063E1,1.446442108E0,-3.558100891E-1,9.735904083E0,9.849194074E0
1.200705263E1,1.437460785E0,-3.405418396E-1,9.763446808E0,9.874571172E0
1.201708363E1,1.435365143E0,-3.415896606E-1,9.782756653E0,9.893395995E0
1.202711463E1,1.441801758E0,-3.356021118E-1,9.797875214E0,9.909075627E0
1.203714662E1,1.453627167E0,-3.109034729E-1,9.811197510E0,9.923169327E0
1.204717763E1,1.437909851E0,-2.836601257E-1,9.799072723E0,9.908071157E0
1.205720863E1,1.422940979E0,-2.716850281E-1,9.767638092E0,9.874478603E0
1.206724063E1,1.402882690E0,-2.664459229E-1,9.743837585E0,9.847915727E0
1.207727162E1,1.395398254E0,-2.597099304E-1,9.717941437E0,9.821047363E0
1.208730363E1,1.398541718E0,-2.751278687E-1,9.713600464E0,9.817619276E0
1.209733463E1,1.406624908E0,-3.046165466E-1,9.721533966E0,9.827492433E0
1.210736563E1,1.433419189E0,-3.141966248E-1,9.719737701E0,9.829888660E0
1.211739762E1,1.461111603E0,-3.344046021E-1,9.734856262E0,9.849573595E0
1.212742863E1,1.437311096E0,-3.436853027E-1,9.765392761E0,9.876582332E0
1.213745963E1,1.417701874E0,-3.730242920E-1,9.780960388E0,9.890207877E0
1.214749163E1,1.405128021E0,-3.767665100E-1,9.810598755E0,9.917872034E0
1.215752262E1,1.411115570E0,-3.716770935E-1,9.810000000E0,9.917937841E0
1.216755363E1,1.415456543E0,-3.564088440E-1,9.791737976E0,9.899933186E0
1.217758563E1,1.424138489E0,-3.417393494E-1,9.783804474E0,9.892814878E0
1.218761663E1,1.425785065E0,-3.162922668E-1,9.782008209E0,9.890429134E0
1.219764762E1,1.414558411E0,-2.945874023E-1,9.770033112E0,9.876300129E0
1.220767963E1,1.433868256E0,-2.881507874E-1,9.740095367E0,9.849287630E0
1.221771063E1,1.447639618E0,-2.773731995E-1,9.726623383E0,9.837672427E0
1.222774163E1,1.445693665E0,-2.770738220E-1,9.726024628E0,9.836785813E0
1.223777363E1,1.455273743E0,-2.871029663E-1,9.728269958E0,9.840705573E0
1.224780463E1,1.473535767E0,-2.938389587E-1,9.742789764E0,9.857971464E0
1.225783663E1,1.464255066E0,-3.080593872E-1,9.772727509E0,9.886614509E0
1.226786762E1,1.461710358E0,-3.284170532E-1,9.790540466E0,9.904500873E0
1.227789863E1,1.440304871E0,-3.311114502E-1,9.776020660E0,9.887097292E0
1.228793063E1,1.451980591E0,-3.350033569E-1,9.772877197E0,9.885828422E0
1.229796163E1,1.432670746E0,-3.460803223E-1,9.780661011E0,9.891089266E0
1.230799262E1,1.423839111E0,-3.394940186E-1,9.772577820E0,9.881591534E0
1.231802463E1,1.416055298E0,-3.412902832E-1,9.774074707E0,9.882015384E0
1.232805563E1,1.413660278E0,-3.498225403E-1,9.777367859E0,9.885228042E0
1.233808663E1,1.415905609E0,-3.279679871E-1,9.766290894E0,9.873843705E0
1.234811862E1,1.398691406E0,-3.138972473E-1,9.760752411E0,9.865452689E0
1.235814963E1,1.401685181E0,-3.126997375E-1,9.784702606E0,9.889535255E0
1.236818063E1,1.436712341E0,-3.085084534E-1,9.779912567E0,9.889692090E0
1.237821263E1,1.449435883E0,-3.085084534E-1,9.775870972E0,9.887552533E0
1.238824362E1,1.442849579E0,-2.915936279E-1,9.747729492E0,9.858248932E0
1.239827563E1,1.396296387E0,-2.874023438E-1,9.717492371E0,9.821502007E0
1.240830663E1,1.380279694E0,-3.204835510E-1,9.722581787E0,9.825297876E0
1.241833763E1,1.388213196E0,-3.555107117E-1,9.772278442E0,9.876788430E0
1.242836963E1,1.401834869E0,-3.643423462E-1,9.770631866E0,9.877405197E0
1.243840063E1,1.405876465E0,-3.275189209E-1,9.757010193E0,9.863214749E0
1.244843163E1,1.406026154E0,-3.242257690E-1,9.759854279E0,9.865940778E0
1.245846362E1,1.438209229E0,-3.707789612E-1,9.805509338E0,9.917355303E0
1.246849463E1,1.490450592E0,-3.806584167E-1,9.812844086E0,9.932686084E0
1.247852563E1,1.497935028E0,-3.453318787E-1,9.791139221E0,9.911078181E0
1.248855763E1,1.444496155E0,-3.505709839E-1,9.732161865E0,9.845021266E0
1.249858862E1,1.405277710E0,-3.674858093E-1,9.720336456E0,9.828264958E0
1.250861963E1,1.422342224E0,-3.894900513E-1,9.739496613E0,9.850510351E0
1.251865163E1,1.459165649E0,-4.176315308E-1,9.790690155E0,9.907633128E0
1.252868263E1,1.497785339E0,-4.056564331E-1,9.811197510E0,9.933152301E0
1.253871362E1,1.501228180E0,-3.565585327E-1,9.818831635E0,9.939329691E0
1.254874563E1,1.465901642E0,-2.890489197E-1,9.785600739E0,9.899009987E0
1.255877663E1,1.428030396E0,-2.363584900E-1,9.713151398E0,9.820409677E0
1.256880863E1,1.428030396E0,-2.195933533E-1,9.694739685E0,9.801809507E0
1.257883962E1,1.428778839E0,-1.975891113E-1,9.705217896E0,9.811814553E0
1.258887063E1,1.433269501E0,-2.285746765E-1,9.733209686E0,9.840827132E0
1.259890263E1,1.430575104E0,-2.339634705E-1,9.796228638E0,9.902897533E0
1.260893363E1,1.413510590E0,-2.459385681E-1,9.815688171E0,9.919991545E0
1.261896462E1,1.405726776E0,-2.710862732E-1,9.811945953E0,9.915837782E0
1.262899663E1,1.407523041E0,-2.957849121E-1,9.830507355E0,9.935164049E0
1.263902763E1,1.422940979E0,-3.137475586E-1,9.801018677E0,9.908741881E0
1.264905863E1,1.438957672E0,-3.315605164E-1,9.762997742E0,9.874039521E0
1.265909063E1,1.453028412E0,-3.644920349E-1,9.740694122E0,9.855215269E0
1.266912163E1,1.425934753E0,-3.713777161E-1,9.668095093E0,9.779737934E0
1.267915263E1,1.422940979E0,-4.043092346E-1,9.649384003E0,9.762112406E0
1.268918462E1,1.428778839E0,-4.484674072E-1,9.704768829E0,9.819626776E0
1.269921563E1,1.450783081E0,-4.197271729E-1,9.727970581E0,9.844508828E0
1.270924663E1,1.470841370E0,-3.842509460E-1,9.733209686E0,9.851212815E0
1.271927863E1,1.462309113E0,-3.535647583E-1,9.776469727E0,9.891547720E0
1.272930962E1,1.473086700E0,-3.076103210E-1,9.778565369E0,9.893682287E0
1.273934163E1,1.466650085E0,-2.415975952E-1,9.793534241E0,9.905692545E0
1.274937263E1,1.447340240E0,-2.157014465E-1,9.789043579E0,9.897812641E0
1.275940363E1,1.430575104E0,-1.993853760E-1,9.766141205E0,9.872376294E0
1.276943562E1,1.404978333E0,-1.919009399E-1,9.779912567E0,9.882179917E0
1.277946663E1,1.375789032E0,-1.972897339E-1,9.764195251E0,9.862617685E0
1.278949763E1,1.371448059E0,-2.209405518E-1,9.752519531E0,9.850955371E0
1.279952963E1,1.386566620E0,-2.613565063E-1,9.743837585E0,9.845468252E0
1.280956062E1,1.395248566E0,-3.016227722E-1,9.759405212E0,9.863249209E0
1.281959163E1,1.412762146E0,-3.424877930E-1,9.791288910E0,9.898612695E0
1.282962363E1,1.454525299E0,-3.652404785E-1,9.829010468E0,9.942760745E0
1.283965463E1,1.473236389E0,-4.089495850E-1,9.838440857E0,9.956534724E0
1.284968562E1,1.468596039E0,-4.095483398E-1,9.805659027E0,9.923479890E0
1.285971763E1,1.492396545E0,-4.082011414E-1,9.774224396E0,9.895925331E0
1.286974863E1,1.490749969E0,-3.851490784E-1,9.719737701E0,9.840933709E0
1.287978062E1,1.466500397E0,-3.511697388E-1,9.702972565E0,9.819451115E0
1.288981163E1,1.461111603E0,-3.161425781E-1,9.688452759E0,9.803107166E0
1.289984263E1,1.438957672E0,-2.921923828E-1,9.703122253E0,9.813590425E0
1.290987463E1,1.440604248E0,-2.706372070E-1,9.748028870E0,9.857618979E0
1.291990562E1,1.440903625E0,-2.546205139E-1,9.766290894E0,9.875296081E0
1.292993663E1,1.441502380E0,-2.559677124E-1,9.775421906E0,9.884448493E0
1.293996863E1,1.442400513E0,-2.802172852E-1,9.808503113E0,9.917952121E0
1.294999963E1,1.428479462E0,-2.878514099E-1,9.799072723E0,9.906827860E0
1.296003062E1,1.417103119E0,-3.044668579E-1,9.793683929E0,9.900359904E0
1.297006263E1,1.425186310E0,-3.031196594E-1,9.804162140E0,9.911843058E0
1.298009363E1,1.428778839E0,-3.094065857E-1,9.772577820E0,9.881316646E0
1.299012463E1,1.414259033E0,-3.435356140E-1,9.751022644E0,9.859035852E0
1.300015662E1,1.418150940E0,-3.463796997E-1,9.762848053E0,9.871389623E0
1.301018763E1,1.408121796E0,-3.481759644E-1,9.754764862E0,9.862021649E0
1.302021863E1,1.429078217E0,-3.182382202E-1,9.769733734E0,9.878827732E0
1.303025063E1,1.425635376E0,-2.998265076E-1,9.761800232E0,9.869907595E0
1.304028162E1,1.421743469E0,-2.948867798E-1,9.748477936E0,9.856020230E0
1.305031363E1,1.423539734E0,-2.812651062E-1,9.744735718E0,9.852179944E0
1.306034463E1,1.409468994E0,-2.682421875E-1,9.741292877E0,9.846387339E0
1.307037563E1,1.410516815E0,-2.636018372E-1,9.761351166E0,9.866256646E0
1.308040763E1,1.417103119E0,-2.746788025E-1,9.745035095E0,9.851362276E0
1.309043863E1,1.416354675E0,-2.918930054E-1,9.747579803E0,9.854266798E0
1.310046963E1,1.422940979E0,-2.992277527E-1,9.747579803E0,9.855435571E0
1.311050162E1,1.420845337E0,-3.191363525E-1,9.772727509E0,9.880630164E0
1.312053263E1,1.418001251E0,-3.372486877E-1,9.764344940E0,9.872532418E0
1.313056363E1,1.429976349E0,-3.396437073E-1,9.773775330E0,9.883667052E0
1.314059563E1,1.434616699E0,-3.366499329E-1,9.791438599E0,9.901703292E0
1.315062662E1,1.442400513E0,-3.125500488E-1,9.795779572E0,9.906336567E0
1.316065763E1,1.471739502E0,-2.662962341E-1,9.794881439E0,9.908412247E0
1.317068963E1,1.455423431E0,-2.480342102E-1,9.771979065E0,9.882881826E0
1.318072063E1,1.429377594E0,-2.254312134E-1,9.726024628E0,9.833081643E0
1.319075262E1,1.408271484E0,-2.306703186E-1,9.727671204E0,9.831786431E0
1.320078363E1,1.411564636E0,-2.477348328E-1,9.719138947E0,9.824232750E0
1.321081463E1,1.422342224E0,-2.746788025E-1,9.730215912E0,9.837459405E0
1.322084663E1,1.408271484E0,-2.712359619E-1,9.701625366E0,9.807055229E0
1.323087762E1,1.421144714E0,-2.615061951E-1,9.746382294E0,9.852918634E0
1.324090863E1,1.449136505E0,-3.010240173E-1,9.828262024E0,9.939081773E0
1.325094063E1,1.487905884E0,-3.522175598E-1,9.857451324E0,9.975332964E0
1.326097163E1,1.506916351E0,-3.318598938E-1,9.814340973E0,9.934898923E0
1.327100262E1,1.449435883E0,-3.273692322E-1,9.765991516E0,9.878391837E0
1.328103463E1,1.400787048E0,-3.363505554E-1,9.726324005E0,9.832431780E0
1.329106563E1,1.392105103E0,-3.519181824E-1,9.717192993E0,9.822710557E0
1.330109663E1,1.411864014E0,-3.903881836E-1,9.757010193E0,9.866357526E0
1.331112863E1,1.459015961E0,-4.005670166E-1,9.776469727E0,9.892853068E0
1.332115963E1,1.495540009E0,-3.643423462E-1,9.796677704E0,9.916868422E0
1.333119163E1,1.476529541E0,-3.044668579E-1,9.795629883E0,9.910963846E0
1.334122262E1,1.457668762E0,-2.534230042E-1,9.761800232E0,9.873285431E0
1.335125363E1,1.464704132E0,-2.218386841E-1,9.749376068E0,9.861283097E0
1.336128563E1,1.478325806E0,-1.962419128E-1,9.761201477E0,9.874462636E0
1.337131663E1,1.466201019E0,-1.748364258E-1,9.783355408E0,9.894157682E0
1.338134762E1,1.441801758E0,-1.649569702E-1,9.786648560E0,9.893659239E0
1.339137963E1,1.423539734E0,-1.615141296E-1,9.777667236E0,9.882071077E0
1.340141063E1,1.382525024E0,-1.719923401E-1,9.778265991E0,9.877015875E0
1.341144163E1,1.368304596E0,-1.971400452E-1,9.773925018E0,9.871207217E0
1.342147362E1,1.373094635E0,-2.194436646E-1,9.771679688E0,9.870119975E0
1.343150463E1,1.412911835E0,-2.604583740E-1,9.773176575E0,9.878215364E0
1.344153563E1,1.427132263E0,-3.001258850E-1,9.768536224E0,9.876795128E0
1.345156763E1,1.453477478E0,-3.308120728E-1,9.752818909E0,9.866078759E0
1.346159862E1,1.461410980E0,-3.583547974E-1,9.751471710E0,9.866881003E0
1.347163063E1,1.459315338E0,-3.727249146E-1,9.739346924E0,9.855120680E0
1.348166163E1,1.452579346E0,-3.770658875E-1,9.736053772E0,9.851035909E0
1.349169263E1,1.456770630E0,-3.725752258E-1,9.737550659E0,9.852963301E0
1.350172463E1,1.454375610E0,-3.487747192E-1,9.758806458E0,9.872748133E0
1.351175563E1,1.439406738E0,-3.366499329E-1,9.779613190E0,9.890705691E0
1.352178663E1,1.449884949E0,-2.880010986E-1,9.782157898E0,9.893216066E0
1.353181862E1,1.461710358E0,-2.353106689E-1,9.776769104E0,9.888234544E0
1.354184963E1,1.448537750E0,-1.971400452E-1,9.753417664E0,9.862366954E0
1.355188063E1,1.418001251E0,-1.664538574E-1,9.787546692E0,9.891132629E0
1.356191263E1,1.363664246E0,-1.426533508E-1,9.753118286E0,9.849022614E0
1.357194362E1,1.365909576E0,-1.336720276E-1,9.728719025E0,9.825047127E0
1.358197463E1,1.352587280E0,-1.678010559E-1,9.708361359E0,9.803567198E0
1.359200663E1,1.365161133E0,-2.112107849E-1,9.749675446E0,9.847052666E0
1.360203763E1,1.393152924E0,-2.573149109E-1,9.794282684E0,9.896214394E0
1.361206862E1,1.405876465E0,-3.122506714E-1,9.837991791E0,9.942840218E0
1.362210063E1,1.442101135E0,-3.640429688E-1,9.868378601E0,9.979833625E0
1.363213163E1,1.479074249E0,-3.860472107E-1,9.858050079E0,9.975863093E0
1.364216363E1,1.487456818E0,-3.814068604E-1,9.820178833E0,9.939512628E0
1.365219462E1,1.475631409E0,-3.561094666E-1,9.767338715E0,9.884594457E0
1.366222563E1,1.445993042E0,-3.245251465E-1,9.751920776E0,9.863882161E0
1.367225763E1,1.441053314E0,-2.896476746E-1,9.750723267E0,9.860889141E0
1.368228863E1,1.439257050E0,-2.769241333E-1,9.745184784E0,9.854784336E0
1.369231962E1,1.445843353E0,-2.471360779E-1,9.758656769E0,9.868278531E0
1.370235163E1,1.421743469E0,-2.427951050E-1,9.763446808E0,9.869407152E0
1.371238263E1,1.435065765E0,-2.206411743E-1,9.763297119E0,9.870666994E0
1.372241363E1,1.437760162E0,-2.273771667E-1,9.781708832E0,9.889422750E0
1.373244563E1,1.442699890E0,-2.555186462E-1,9.794432373E0,9.903412455E0
1.374247663E1,1.427431641E0,-2.785707092E-1,9.780661011E0,9.888199661E0
1.375250863E1,1.432071991E0,-3.013233948E-1,9.769883423E0,9.878878887E0
1.376254050E1,1.422042847E0,-3.153941345E-1,9.780661011E0,9.888529169E0
1.377257150E1,1.435215454E0,-3.293151855E-1,9.766889648E0,9.877268109E0
1.378260350E1,1.428928528E0,-3.260220337E-1,9.773475952E0,9.882760712E0
1.379263450E1,1.446442108E0,-3.204835510E-1,9.748627625E0,9.860560077E0
1.380266550E1,1.452729034E0,-3.086581421E-1,9.742041321E0,9.854595912E0
1.381269750E1,1.438358917E0,-3.062631226E-1,9.744885406E0,9.855225267E0
1.382272850E1,1.450483704E0,-3.086581421E-1,9.759854279E0,9.871875625E0
1.383275950E1,1.452729034E0,-3.129991150E-1,9.772278442E0,9.884625236E0
1.384279150E1,1.448238373E0,-3.088078308E-1,9.777218170E0,9.888718411E0
1.385282250E1,1.434916077E0,-2.782713318E-1,9.789941711E0,9.898453303E0
1.386285350E1,1.420695648E0,-2.640509033E-1,9.762848053E0,9.869209751E0
1.387288550E1,1.416055298E0,-2.636018372E-1,9.754315796E0,9.860090019E0
1.388291650E1,1.407972107E0,-2.692900085E-1,9.742041321E0,9.846942249E0
1.389294750E1,1.395847321E0,-2.671943665E-1,9.739945679E0,9.843085106E0
1.390297950E1,1.410965881E0,-2.782713318E-1,9.745933228E0,9.851470658E0
1.391301050E1,1.425036621E0,-3.076103210E-1,9.782906342E0,9.890935748E0
1.392304250E1,1.448537750E0,-3.324586487E-1,9.785600739E0,9.897816536E0
1.393307350E1,1.476379852E0,-3.567082214E-1,9.796378326E0,9.913423553E0
1.394310450E1,1.484313354E0,-3.616479492E-1,9.805509338E0,9.923809186E0
1.395313650E1,1.496438141E0,-3.600013733E-1,9.781858521E0,9.902206028E0
1.396316750E1,1.484013977E0,-3.450325012E-1,9.769434357E0,9.887527121E0
1.397319850E1,1.490600281E0,-3.146456909E-1,9.755662994E0,9.873897486E0
1.398323050E1,1.490300903E0,-3.046165466E-1,9.774224396E0,9.891878010E0
1.399326150E1,1.490001526E0,-2.984793091E-1,9.764195251E0,9.881735847E0
1.400329250E1,1.493444366E0,-2.633024597E-1,9.753267975E0,9.870457966E0
1.401332450E1,1.468146973E0,-2.619552612E-1,9.731263733E0,9.844875313E0
1.402335550E1,1.427880707E0,-2.647993469E-1,9.701775055E0,9.809862447E0
1.403338650E1,1.408570862E0,-2.909948730E-1,9.728719025E0,9.834466114E0
1.404341850E1,1.400038605E0,-3.147953796E-1,9.756860504E0,9.861821897E0
1.405344950E1,1.420096893E0,-3.439846802E-1,9.767189026E0,9.875878802E0
1.406348150E1,1.429976349E0,-3.186872864E-1,9.786349182E0,9.895404199E0
1.407351250E1,1.435215454E0,-2.911445618E-1,9.744436340E0,9.853864630E0
1.408354350E1,1.446741486E0,-3.122506714E-1,9.744885406E0,9.856640046E0
1.409357550E1,1.478026428E0,-3.534150696E-1,9.798324280E0,9.915473918E0
1.410360650E1,1.533111877E0,-3.860472107E-1,9.832752686E0,9.959040609E0
1.411363750E1,1.544039154E0,-3.963757324E-1,9.816286926E0,9.944881078E0
1.412366950E1,1.520088959E0,-3.893403625E-1,9.782906342E0,9.907952001E0
1.413370050E1,1.477427673E0,-3.510200500E-1,9.720785522E0,9.838682777E0
1.414373150E1,1.465153198E0,-3.531156921E-1,9.719138947E0,9.835294934E0
1.415376350E1,1.447489929E0,-3.679348755E-1,9.743538208E0,9.857339397E0
1.416379450E1,1.470841370E0,-3.144960022E-1,9.744885406E0,9.860277565E0
1.417382550E1,1.465751953E0,-2.540217590E-1,9.734556885E0,9.847565871E0
1.418385750E1,1.463506622E0,-1.917512512E-1,9.721084900E0,9.832502825E0
1.419388850E1,1.473685455E0,-1.700463867E-1,9.706864471E0,9.819566307E0
1.420392050E1,1.492546234E0,-1.883084106E-1,9.720186768E0,9.835913029E0
1.421395150E1,1.490001526E0,-2.092648315E-1,9.761650543E0,9.876928553E0
1.422398250E1,1.481469269E0,-2.303709412E-1,9.806257782E0,9.920207339E0
1.423401450E1,1.469943237E0,-2.579136658E-1,9.830357666E0,9.942996753E0
1.424404550E1,1.447489929E0,-2.992277527E-1,9.835746460E0,9.946188856E0
1.425407650E1,1.452579346E0,-3.104544067E-1,9.810598755E0,9.922409819E0
1.426410850E1,1.472487946E0,-3.463796997E-1,9.812544708E0,9.928455736E0
1.427413950E1,1.482367401E0,-3.487747192E-1,9.762548676E0,9.880607955E0
1.428417050E1,1.493893433E0,-3.373983765E-1,9.739646301E0,9.859323776E0
1.429420250E1,1.488354950E0,-3.453318787E-1,9.702673187E0,9.822236076E0
1.430423350E1,1.495090942E0,-3.347039795E-1,9.679471436E0,9.799974028E0
1.431426450E1,1.478625183E0,-3.332070923E-1,9.698481903E0,9.816206529E0
1.432429650E1,1.504221954E0,-3.442840576E-1,9.709558868E0,9.831416410E0
1.433432750E1,1.515448608E0,-3.480262756E-1,9.714648285E0,9.838297519E0
1.434435950E1,1.521436157E0,-3.432362366E-1,9.753567352E0,9.877482229E0
1.435439050E1,1.526076508E0,-3.291654968E-1,9.758507080E0,9.882596818E0
1.436442150E1,1.511706390E0,-3.121009827E-1,9.772877197E0,9.894028095E0
1.437445350E1,1.509011993E0,-2.960842896E-1,9.780661011E0,9.900813750E0
1.438448450E1,1.501826935E0,-2.716850281E-1,9.797276459E0,9.915438614E0
1.439451550E1,1.494791565E0,-2.315684509E-1,9.743089142E0,9.859807899E0
1.440454750E1,1.475032654E0,-2.468367004E-1,9.745035095E0,9.859125656E0
1.441457850E1,1.476978607E0,-3.013233948E-1,9.756112061E0,9.871878450E0
1.442460950E1,1.488354950E0,-3.225791931E-1,9.770482178E0,9.888456896E0
1.443464150E1,1.489103394E0,-3.035687256E-1,9.783056030E0,9.900392325E0
1.444467250E1,1.471739502E0,-2.926414490E-1,9.757608948E0,9.872314245E0
1.445470450E1,1.476080475E0,-3.203338623E-1,9.760153656E0,9.876336707E0
1.446473550E1,1.515897675E0,-3.706292725E-1,9.800120544E0,9.923591815E0
1.447476650E1,1.535656586E0,-3.610491943E-1,9.800120544E0,9.926276258E0
1.448479850E1,1.540895691E0,-3.495231628E-1,9.776769104E0,9.903622574E0
1.449482950E1,1.524429932E0,-3.326083374E-1,9.759704590E0,9.883640453E0
1.450486050E1,1.495540009E0,-3.323089600E-1,9.717192993E0,9.837220585E0
1.451489250E1,1.481918335E0,-3.212319946E-1,9.712852020E0,9.830501834E0
1.452492350E1,1.487456818E0,-3.004252625E-1,9.715546417E0,9.833342530E0
1.453495450E1,1.476978607E0,-2.891986084E-1,9.730964355E0,9.846662832E0
1.454498650E1,1.500180359E0,-2.869532776E-1,9.727970581E0,9.847146537E0
1.455501750E1,1.497336273E0,-2.918930054E-1,9.737850037E0,9.856619135E0
1.456504850E1,1.489552460E0,-2.945874023E-1,9.735305328E0,9.853005537E0
1.457508050E1,1.472188568E0,-3.327580261E-1,9.749376068E0,9.865515739E0
1.458511150E1,1.473984833E0,-3.438349915E-1,9.766141205E0,9.882730788E0
1.459514250E1,1.463955688E0,-3.573069763E-1,9.765243073E0,9.880830269E0
1.460517450E1,1.469344482E0,-3.691323853E-1,9.769584045E0,9.886354452E0
1.461520550E1,1.486858063E0,-3.719764709E-1,9.753118286E0,9.872812654E0
1.462523750E1,1.476529541E0,-3.888912964E-1,9.755213928E0,9.873984743E0
1.463526850E1,1.485810242E0,-3.915856934E-1,9.759554901E0,9.879771419E0
1.464529950E1,1.488205261E0,-3.814068604E-1,9.754315796E0,9.874558357E0
1.465533150E1,1.485660553E0,-3.763174438E-1,9.748627625E0,9.868360688E0
1.466536250E1,1.479972382E0,-3.606001282E-1,9.748028870E0,9.866327460E0
1.467539350E1,1.469194794E0,-3.468287659E-1,9.777667236E0,9.893513032E0
1.468542550E1,1.451082458E0,-3.103047180E-1,9.761051788E0,9.873199144E0
1.469545650E1,1.465901642E0,-3.155438232E-1,9.765991516E0,9.880436520E0
1.470548750E1,1.467398529E0,-3.210823059E-1,9.768536224E0,9.883352278E0
1.471551950E1,1.489402771E0,-3.026705933E-1,9.756860504E0,9.874525659E0
1.472555050E1,1.458267517E0,-2.993774414E-1,9.744286652E0,9.857347176E0
1.473558250E1,1.444346466E0,-3.294648743E-1,9.761500854E0,9.873276191E0
1.474561350E1,1.490300903E0,-3.376977539E-1,9.789492645E0,9.908037283E0
1.475564429E1,1.514700165E0,-3.373983765E-1,9.784403229E0,9.906699793E0
1.476567629E1,1.523681488E0,-3.185375977E-1,9.795480194E0,9.918392194E0
1.477570729E1,1.525777130E0,-3.040177917E-1,9.758656769E0,9.881892764E0
1.478573829E1,1.499731293E0,-2.936892700E-1,9.737400970E0,9.856592971E0
1.479577029E1,1.473685455E0,-3.106040955E-1,9.717642059E0,9.833656030E0
1.480580129E1,1.471140747E0,-3.360511780E-1,9.730664978E0,9.846980573E0
1.481583229E1,1.469643860E0,-3.646417236E-1,9.763895874E0,9.880611282E0
1.482586429E1,1.477128296E0,-3.611988831E-1,9.764344940E0,9.882044563E0
1.483589529E1,1.466799774E0,-3.519181824E-1,9.739795990E0,9.855910608E0
1.484592629E1,1.437760162E0,-3.305126953E-1,9.714498596E0,9.825877869E0
1.485595829E1,1.441203003E0,-3.640429688E-1,9.740993500E0,9.853758052E0
1.486598929E1,1.472787323E0,-4.305047607E-1,9.800719299E0,9.920107642E0
1.487602129E1,1.516496429E0,-4.457730103E-1,9.822873230E0,9.949236829E0
1.488605229E1,1.541494446E0,-4.516108704E-1,9.797126770E0,9.927932839E0
1.489608329E1,1.498384094E0,-3.957769775E-1,9.740394745E0,9.862914584E0
1.490611529E1,1.477427673E0,-3.462300110E-1,9.727970581E0,9.845612189E0
1.491614629E1,1.471739502E0,-3.567082214E-1,9.725425873E0,9.842619891E0
1.492617729E1,1.484762421E0,-3.459306335E-1,9.728419647E0,9.847148637E0
1.493620929E1,1.478176117E0,-2.906954956E-1,9.730814667E0,9.846738677E0
1.494624029E1,1.488953705E0,-2.315684509E-1,9.730215912E0,9.846202759E0
1.495627129E1,1.475032654E0,-2.088157654E-1,9.707463226E0,9.821108270E0
1.496630329E1,1.482068024E0,-2.198927307E-1,9.696535950E0,9.811609851E0
1.497633429E1,1.474583588E0,-2.498304749E-1,9.723928986E0,9.838272559E0
1.498636629E1,1.464404755E0,-2.829116821E-1,9.744436340E0,9.857918639E0
1.499639729E1,1.466500397E0,-3.207829285E-1,9.787397003E0,9.901851605E0
1.500642829E1,1.481319580E0,-3.829037476E-1,9.824819183E0,9.943238656E0
1.501646029E1,1.486408997E0,-4.068539429E-1,9.824819183E0,9.944949161E0
1.502649129E1,1.486558685E0,-4.373904419E-1,9.811945953E0,9.933551757E0
1.503652229E1,1.492995300E0,-4.516108704E-1,9.803264008E0,9.926579096E0
1.504655429E1,1.488354950E0,-4.285588074E-1,9.789792023E0,9.911553408E0
1.505658529E1,1.495240631E0,-4.167333984E-1,9.766290894E0,9.888875016E0
1.506661629E1,1.485211487E0,-3.830534363E-1,9.731563110E0,9.851695472E0
1.507664829E1,1.466949463E0,-3.616479492E-1,9.710007935E0,9.826850159E0
1.508667929E1,1.470392303E0,-3.492237854E-1,9.694739685E0,9.811829001E0
1.509671029E1,1.459764404E0,-3.456312561E-1,9.661808167E0,9.777571791E0
1.510674229E1,1.450783081E0,-3.390449524E-1,9.683513031E0,9.797456183E0
1.511677329E1,1.456171875E0,-3.344046021E-1,9.726174316E0,9.840260657E0
1.512680529E1,1.478625183E0,-3.296145630E-1,9.748627625E0,9.865633216E0
1.513683629E1,1.490151215E0,-3.300636292E-1,9.745783539E0,9.864572440E0
1.514686729E1,1.484612732E0,-3.177891541E-1,9.786498871E0,9.903566280E0
1.515689929E1,1.477128296E0,-3.270698547E-1,9.835896149E0,9.951569511E0
1.516693029E1,1.495839386E0,-3.231779480E-1,9.802216187E0,9.920958705E0
1.517696129E1,1.526675262E0,-3.600013733E-1,9.765692139E0,9.890858471E0
1.518699329E1,1.496887207E0,-3.600013733E-1,9.751471710E0,9.872257736E0
1.519702429E1,1.444645844E0,-3.457809448E-1,9.734856262E0,9.847537384E0
1.520705529E1,1.433419189E0,-3.326083374E-1,9.746082916E0,9.856543567E0
1.521708729E1,1.450184326E0,-3.668870544E-1,9.771230621E0,9.885068970E0
1.522711829E1,1.497036896E0,-4.194277954E-1,9.822573853E0,9.944847723E0
1.523714929E1,1.562001801E0,-4.248165894E-1,9.821975098E0,9.954472039E0
1.524718129E1,1.579665070E0,-3.769161987E-1,9.783355408E0,9.917229986E0
1.525721229E1,1.544039154E0,-3.611988831E-1,9.708960114E0,9.837602758E0
1.526724429E1,1.491947479E0,-3.607498169E-1,9.680519257E0,9.801454014E0
1.527727529E1,1.451980591E0,-3.516188049E-1,9.704170074E0,9.818492769E0
1.528730629E1,1.469494171E0,-3.550616455E-1,9.737251282E0,9.853910108E0
1.529733829E1,1.503323822E0,-3.643423462E-1,9.754315796E0,9.876203952E0
1.530736929E1,1.515448608E0,-3.706292725E-1,9.739047546E0,9.863214367E0
1.531740029E1,1.492546234E0,-3.659889221E-1,9.735005951E0,9.855555947E0
1.532743229E1,1.479972382E0,-3.842509460E-1,9.752669220E0,9.871804493E0
1.533746329E1,1.469194794E0,-3.963757324E-1,9.764794006E0,9.882653948E0
1.534749429E1,1.457369385E0,-4.059558105E-1,9.752968597E0,9.869605975E0
1.535752629E1,1.454375610E0,-4.105961609E-1,9.760602722E0,9.876900482E0
1.536755729E1,1.454375610E0,-4.131408691E-1,9.749974823E0,9.866504084E0
1.537758929E1,1.464404755E0,-4.153862000E-1,9.732760620E0,9.851073864E0
1.538762029E1,1.488504639E0,-4.288581848E-1,9.728269958E0,9.850827467E0
1.539765129E1,1.485510864E0,-4.460723877E-1,9.755064240E0,9.877600995E0
1.540768329E1,1.484463043E0,-4.279600525E-1,9.759854279E0,9.881373177E0
1.541771429E1,1.484463043E0,-4.266128540E-1,9.757309570E0,9.878801501E0
1.542774529E1,1.477128296E0,-4.206253052E-1,9.745633850E0,9.865911655E0
1.543777729E1,1.465153198E0,-3.908372498E-1,9.739197235E0,9.856540490E0
1.544780829E1,1.463955688E0,-3.814068604E-1,9.734257507E0,9.851111951E0
1.545783929E1,1.457818451E0,-3.653901672E-1,9.709109802E0,9.824742122E0
1.546787129E1,1.446142731E0,-3.504212952E-1,9.715396729E0,9.828685440E0
1.547790229E1,1.465602264E0,-3.603007507E-1,9.742789764E0,9.858993814E0
1.548793329E1,1.488953705E0,-3.700305176E-1,9.759704590E0,9.879561701E0
1.549796529E1,1.504521332E0,-3.592529297E-1,9.758806458E0,9.880635130E0
1.550799629E1,1.503473511E0,-3.604504395E-1,9.785600739E0,9.906984351E0
1.551802829E1,1.483714600E0,-3.659889221E-1,9.758357391E0,9.877291931E0
1.552805929E1,1.472637634E0,-3.655398560E-1,9.719138947E0,9.836866516E0
1.553809029E1,1.453627167E0,-3.930825806E-1,9.717192993E0,9.833177794E0
1.554812229E1,1.444945221E0,-4.370910645E-1,9.752070465E0,9.868221402E0
1.555815329E1,1.457070007E0,-4.273612976E-1,9.757309570E0,9.874754718E0
1.556818429E1,1.451232147E0,-4.047583008E-1,9.713750153E0,9.829895526E0
1.557821629E1,1.447040863E0,-3.718267822E-1,9.693542175E0,9.808003993E0
1.558824729E1,1.468596039E0,-4.167333984E-1,9.742041321E0,9.860923392E0
1.559827829E1,1.504820709E0,-4.779560852E-1,9.799521790E0,9.925903218E0
1.560831029E1,1.553619232E0,-4.559518433E-1,9.769584045E0,9.902847935E0
1.561834129E1,1.522633667E0,-4.382885742E-1,9.763895874E0,9.891621343E0
1.562837329E1,1.467398529E0,-4.447251892E-1,9.767488403E0,9.887106182E0
1.563840429E1,1.445993042E0,-4.028123474E-1,9.750423889E0,9.865288626E0
1.564843529E1,1.461860046E0,-4.038601685E-1,9.720486145E0,9.838088672E0
1.565846729E1,1.448537750E0,-3.769161987E-1,9.718689880E0,9.833273129E0
1.566849829E1,1.431473236E0,-3.288661194E-1,9.720486145E0,9.830824963E0
1.567852929E1,1.443298645E0,-2.606080627E-1,9.720037079E0,9.830063497E0
1.568856129E1,1.463806000E0,-2.305206299E-1,9.713301086E0,9.825685002E0
1.569859229E1,1.492396545E0,-2.212399292E-1,9.728419647E0,9.844711443E0
1.570862329E1,1.509461060E0,-2.338137817E-1,9.732461243E0,9.851595983E0
1.571865529E1,1.501527557E0,-2.655477905E-1,9.771529999E0,9.889787619E0
1.572868629E1,1.476679230E0,-3.198847961E-1,9.784103851E0,9.900080606E0
1.573871729E1,1.465602264E0,-3.626957703E-1,9.815239105E0,9.930682601E0
1.574874929E1,1.465302887E0,-4.076023865E-1,9.823771362E0,9.940811639E0
1.575878050E1,1.467847595E0,-4.243675232E-1,9.818532257E0,9.936711732E0
1.576881250E1,1.463207245E0,-4.311035156E-1,9.791737976E0,9.909841486E0
1.577884350E1,1.454974365E0,-4.314028931E-1,9.765093384E0,9.882312870E0
1.578887450E1,1.453477478E0,-4.285588074E-1,9.742340698E0,9.859485875E0
1.579890650E1,1.466650085E0,-4.150868225E-1,9.736053772E0,9.854648781E0
1.580893750E1,1.457070007E0,-4.071533203E-1,9.728269958E0,9.845205088E0
1.581896850E1,1.463656311E0,-4.035607910E-1,9.703571320E0,9.821631609E0
1.582900050E1,1.461410980E0,-3.841012573E-1,9.717043304E0,9.833828675E0
1.583903150E1,1.460961914E0,-3.852987671E-1,9.730365601E0,9.846973117E0
1.584906250E1,1.454375610E0,-3.683839417E-1,9.756411438E0,9.871093115E0
1.585909450E1,1.469344482E0,-3.453318787E-1,9.783205719E0,9.898956584E0
1.586912550E1,1.467697906E0,-3.433859253E-1,9.801318054E0,9.916546104E0
1.587915650E1,1.473685455E0,-3.249742126E-1,9.794731750E0,9.910304088E0
1.588918850E1,1.441801758E0,-2.956352234E-1,9.769733734E0,9.879974177E0
1.589921950E1,1.411564636E0,-2.844085693E-1,9.805209961E0,9.910375640E0
1.590925150E1,1.393901367E0,-2.728825378E-1,9.787247314E0,9.889774310E0
1.591928250E1,1.438209229E0,-2.689906311E-1,9.750274200E0,9.859444646E0
1.592931350E1,1.452130280E0,-2.939886475E-1,9.701924744E0,9.814400410E0
1.593934550E1,1.432970123E0,-2.909948730E-1,9.676926727E0,9.786776399E0
1.594937650E1,1.440005493E0,-3.445834351E-1,9.729168091E0,9.841192270E0
1.595940750E1,1.483115845E0,-3.912863159E-1,9.773625641E0,9.893255064E0
1.596943950E1,1.533261566E0,-4.209246826E-1,9.834848328E0,9.962545370E0
1.597947050E1,1.538650360E0,-4.477189636E-1,9.825567627E0,9.955384292E0
1.598950150E1,1.551373901E0,-4.535568237E-1,9.827513580E0,9.959543059E0
1.599953350E1,1.521885223E0,-4.279600525E-1,9.764794006E0,9.891940478E0
1.600956450E1,1.479673004E0,-3.939807129E-1,9.701176300E0,9.821276628E0
1.601959650E1,1.432221680E0,-3.468287659E-1,9.675729218E0,9.787302234E0
1.602962750E1,1.401385803E0,-3.332070923E-1,9.697583771E0,9.803980831E0
1.603965850E1,1.422042847E0,-3.164419556E-1,9.729317780E0,9.837782566E0
1.604969050E1,1.454974365E0,-3.004252625E-1,9.757010193E0,9.869470789E0
1.605972150E1,1.455722809E0,-2.820135498E-1,9.749675446E0,9.861786442E0
1.606975250E1,1.446292419E0,-2.903961182E-1,9.768835602E0,9.879587070E0
1.607978450E1,1.430874481E0,-3.100053406E-1,9.771529999E0,9.880602391E0
1.608981550E1,1.423839111E0,-2.999761963E-1,9.773326263E0,9.881053071E0
1.609984650E1,1.420845337E0,-3.121009827E-1,9.774224396E0,9.881886006E0
1.610987850E1,1.440753937E0,-3.353027344E-1,9.767937469E0,9.879311830E0
1.611990950E1,1.434467010E0,-3.309617615E-1,9.769284668E0,9.879582694E0
1.612994050E1,1.446142731E0,-3.367996216E-1,9.767937469E0,9.880150059E0
1.613997250E1,1.451830902E0,-3.496728516E-1,9.757010193E0,9.870629766E0
1.615000350E1,1.440454559E0,-3.429368591E-1,9.740993500E0,9.852891423E0
1.616003550E1,1.433718567E0,-3.546125793E-1,9.739197235E0,9.850546269E0
1.617006650E1,1.446292419E0,-3.541635132E-1,9.758956146E0,9.871900456E0
1.618009750E1,1.449286194E0,-3.617976379E-1,9.781858521E0,9.895255637E0
1.619012950E1,1.461710358E0,-3.543132019E-1,9.801318054E0,9.916046118E0
1.620016050E1,1.466799774E0,-3.408412170E-1,9.804611206E0,9.919580395E0
1.621019150E1,1.467248840E0,-3.339555359E-1,9.791438599E0,9.906392648E0
1.622022350E1,1.444795532E0,-3.113525391E-1,9.782606964E0,9.893622873E0
1.623025450E1,1.439706116E0,-3.070115662E-1,9.761650543E0,9.872022646E0
1.624028550E1,1.442250824E0,-3.089575195E-1,9.749376068E0,9.860318246E0
1.625031750E1,1.415755920E0,-3.071612549E-1,9.767638092E0,9.874485645E0
1.626034850E1,1.425186310E0,-3.183879089E-1,9.734706573E0,9.843629359E0
1.627038050E1,1.405876465E0,-3.329077148E-1,9.728120270E0,9.834817749E0
1.628041150E1,1.409319305E0,-3.246748352E-1,9.745484161E0,9.852210726E0
1.629044250E1,1.435065765E0,-3.450325012E-1,9.783654785E0,9.894360117E0
1.630047450E1,1.480720825E0,-3.128494263E-1,9.799372101E0,9.915548522E0
1.631050550E1,1.468296661E0,-2.874023438E-1,9.782457275E0,9.896209655E0
1.632053650E1,1.447190552E0,-2.585124207E-1,9.747729492E0,9.857962235E0
1.633056850E1,1.420246582E0,-2.740800476E-1,9.735455017E0,9.842322115E0
1.634059950E1,1.408121796E0,-2.859054565E-1,9.759704590E0,9.864906619E0
1.635063050E1,1.411115570E0,-2.966830444E-1,9.762099609E0,9.868021928E0
1.636066250E1,1.396446075E0,-2.743794250E-1,9.685758362E0,9.789752844E0
1.637069350E1,1.393601990E0,-2.803669739E-1,9.737850037E0,9.841059673E0
1.638072550E1,1.442250824E0,-3.387455750E-1,9.800868988E0,9.912208075E0
1.639075650E1,1.505868530E0,-3.535647583E-1,9.843380585E0,9.964175300E0
1.640078750E1,1.501677246E0,-3.418890381E-1,9.847721558E0,9.967424068E0
1.641081950E1,1.467997284E0,-3.276686096E-1,9.768835602E0,9.883953245E0
1.642085050E1,1.410067749E0,-3.167413330E-1,9.718839569E0,9.825703980E0
1.643088150E1,1.405128021E0,-3.511697388E-1,9.717342682E0,9.824685936E0
1.644091350E1,1.456022186E0,-4.001179504E-1,9.752818909E0,9.869020805E0
1.645094450E1,1.503473511E0,-4.159849548E-1,9.790540466E0,9.914038466E0
1.646097550E1,1.532363434E0,-3.899391174E-1,9.812844086E0,9.939421475E0
1.647100750E1,1.512305145E0,-3.278182983E-1,9.772278442E0,9.894036469E0
1.648103850E1,1.481918335E0,-2.824626160E-1,9.739047546E0,9.855197319E0
1.649107050E1,1.480421448E0,-2.517764282E-1,9.713899841E0,9.829287317E0
1.650110150E1,1.479373627E0,-2.183958435E-1,9.728269958E0,9.842534199E0
1.651113250E1,1.463057556E0,-1.911524963E-1,9.755363617E0,9.866316232E0
1.652116450E1,1.436862030E0,-1.818717957E-1,9.775272217E0,9.881983442E0
1.653119550E1,1.415306854E0,-1.698966980E-1,9.783056030E0,9.886361498E0
1.654122650E1,1.384470978E0,-1.850152588E-1,9.782906342E0,9.882117537E0
1.655125850E1,1.366358643E0,-2.017803955E-1,9.778565369E0,9.875626154E0
1.656128950E1,1.380429382E0,-2.438429260E-1,9.790540466E0,9.890385598E0
1.657132050E1,1.408720551E0,-2.888992310E-1,9.783954163E0,9.889070503E0
1.658135250E1,1.420845337E0,-3.233276367E-1,9.767787781E0,9.875880739E0
1.659138350E1,1.446142731E0,-3.382965088E-1,9.770631866E0,9.882864989E0
1.660141450E1,1.452429657E0,-3.570075989E-1,9.760902100E0,9.874827398E0
1.661144650E1,1.437460785E0,-3.598516846E-1,9.751022644E0,9.862972643E0
1.662147750E1,1.439706116E0,-3.604504395E-1,9.759854279E0,9.872053168E0
1.663150950E1,1.430425415E0,-3.606001282E-1,9.762099609E0,9.872929560E0
1.664154050E1,1.442400513E0,-3.504212952E-1,9.780511322E0,9.892508076E0
1.665157150E1,1.453477478E0,-3.109034729E-1,9.773775330E0,9.886148995E0
1.666160350E1,1.466799774E0,-2.824626160E-1,9.765991516E0,9.879568665E0
1.667163450E1,1.474583588E0,-2.618055725E-1,9.792486420E0,9.906347924E0
