"Time (s)","Acceleration x (m/s^2)","Acceleration y (m/s^2)","Acceleration z (m/s^2)","Absolute acceleration (m/s^2)"
1.696833351E-3,1.200653229E0,-4.156855774E-1,1.048315018E1,1.055986744E1
1.172883331E-2,1.215472412E0,-3.799099731E-1,1.019769379E1,1.027689950E1
2.175983333E-2,1.243913269E0,-3.379971313E-1,9.843979340E0,9.928015488E0
3.179083334E-2,1.287322998E0,-2.315684509E-1,9.542506256E0,9.631731417E0
4.182283336E-2,1.315165100E0,-1.246907043E-1,9.321565704E0,9.414711583E0
5.185383331E-2,1.326092377E0,-4.909790039E-2,9.158404999E0,9.254043101E0
6.188483333E-2,1.382375336E0,1.796264648E-3,9.148974609E0,9.252821256E0
7.191683335E-2,1.432820435E0,4.340972900E-3,9.229656830E0,9.340211905E0
8.194783336E-2,1.470991058E0,-5.179229736E-2,9.454040222E0,9.567934660E0
9.197983332E-2,1.481169891E0,-1.386117554E-1,9.704469452E0,9.817830963E0
1.020108333E-1,1.486259308E0,-2.154020691E-1,9.928403778E0,1.004134286E1
1.120418333E-1,1.458566895E0,-3.115022278E-1,1.005129822E1,1.016135064E1
1.227008334E-1,1.418001251E0,-3.393443298E-1,1.010054581E1,1.020523923E1
1.327318333E-1,1.371747437E0,-3.293151855E-1,1.007090744E1,1.016923381E1
1.427628333E-1,1.329834595E0,-2.986289978E-1,9.974507904E0,1.006719659E1
1.527948334E-1,1.323847046E0,-2.631527710E-1,9.867630157E0,9.959515315E0
1.628258334E-1,1.323098602E0,-2.288740540E-1,9.769584045E0,9.861427162E0
1.728568333E-1,1.310225372E0,-2.067201233E-1,9.673034821E0,9.763556031E0
1.828888333E-1,1.307081909E0,-1.968406677E-1,9.595795441E0,9.686407977E0
1.929198334E-1,1.312770081E0,-1.947450256E-1,9.590855713E0,9.682241694E0
2.029508334E-1,1.329535217E0,-2.076182556E-1,9.629625092E0,9.723191278E0
2.129828333E-1,1.347048798E0,-2.119592285E-1,9.706116028E0,9.801436401E0
2.230138333E-1,1.368304596E0,-2.375559998E-1,9.783056030E0,9.881137364E0
2.330448334E-1,1.379531250E0,-2.417472839E-1,9.848320312E0,9.947409773E0
2.430768333E-1,1.373843079E0,-2.637515259E-1,9.876910858E0,9.975488849E0
2.531078333E-1,1.363813934E0,-2.580633545E-1,9.888885956E0,9.985822479E0
2.631398333E-1,1.343456268E0,-2.513273621E-1,9.863139496E0,9.957387253E0
2.731708334E-1,1.325343933E0,-2.300715637E-1,9.819430389E0,9.911139321E0
2.832018333E-1,1.316212921E0,-2.100132751E-1,9.781858521E0,9.872247877E0
2.932338333E-1,1.308429108E0,-1.914518738E-1,9.737251282E0,9.826632336E0
3.032639167E-1,1.310225372E0,-1.694476318E-1,9.725575562E0,9.814898014E0
3.132949166E-1,1.308129730E0,-1.770817566E-1,9.716294861E0,9.805556953E0
3.233269167E-1,1.328786774E0,-1.818717957E-1,9.747430115E0,9.839265495E0
3.333579167E-1,1.340911560E0,-2.038760376E-1,9.755812683E0,9.849644174E0
3.433889167E-1,1.351539459E0,-2.118095398E-1,9.784552917E0,9.879726615E0
3.534209167E-1,1.361718292E0,-2.306703186E-1,9.795929260E0,9.892811308E0
3.634519167E-1,1.362317047E0,-2.297721863E-1,9.793085175E0,9.890056634E0
3.734829167E-1,1.361119537E0,-2.381547546E-1,9.792935486E0,9.889941836E0
3.835149167E-1,1.364263000E0,-2.568658447E-1,9.774374084E0,9.872465869E0
3.935459167E-1,1.357227631E0,-2.447410583E-1,9.772128754E0,9.868964759E0
4.035769167E-1,1.360969849E0,-2.517764282E-1,9.771230621E0,9.868767813E0
4.136089167E-1,1.361568604E0,-2.420466614E-1,9.756561127E0,9.854082437E0
4.236399167E-1,1.359772339E0,-2.487826538E-1,9.764494629E0,9.861857278E0
4.336719167E-1,1.358574829E0,-2.372566223E-1,9.767638092E0,9.864520777E0
4.437029167E-1,1.338815918E0,-2.278262329E-1,9.768685913E0,9.862634401E0
4.537339167E-1,1.322050781E0,-2.266287231E-1,9.752519531E0,9.844329132E0
4.637659166E-1,1.321452026E0,-2.272274780E-1,9.772128754E0,9.863689379E0
4.737969167E-1,1.337319031E0,-2.228865051E-1,9.819729767E0,9.912880171E0
4.838279167E-1,1.368454285E0,-1.902543640E-1,9.837393036E0,9.933940084E0
4.938599167E-1,1.358275452E0,-1.736389160E-1,9.828561401E0,9.923491417E0
5.038909166E-1,1.335822144E0,-1.492396545E-1,9.755363617E0,9.847528247E0
5.139219167E-1,1.306333466E0,-1.574725342E-1,9.709109802E0,9.797862924E0
5.239539167E-1,1.275497589E0,-1.851649475E-1,9.732461243E0,9.817432556E0
5.339849167E-1,1.282832336E0,-2.022294617E-1,9.774523773E0,9.860419390E0
5.440159166E-1,1.279838562E0,-1.996847534E-1,9.722731476E0,9.808637423E0
5.540479167E-1,1.277892609E0,-1.930984497E-1,9.717642059E0,9.803206808E0
5.640789167E-1,1.334474945E0,-2.504292297E-1,9.836345215E0,9.929613556E0
5.741109167E-1,1.369801483E0,-2.677931213E-1,9.853409729E0,9.951771327E0
5.841419167E-1,1.397643585E0,-2.568658447E-1,9.864935760E0,9.966762022E0
5.941729167E-1,1.372196503E0,-2.451901245E-1,9.772428131E0,9.871342007E0
6.042049167E-1,1.339564362E0,-2.528242493E-1,9.752669220E0,9.847482404E0
6.142359167E-1,1.332978058E0,-2.971321106E-1,9.774074707E0,9.869024996E0
6.242669167E-1,1.375489655E0,-3.523672485E-1,9.804012451E0,9.906300753E0
6.342989167E-1,1.391656036E0,-3.299139404E-1,9.839788055E0,9.943187553E0
6.443299167E-1,1.374890900E0,-2.832110596E-1,9.811047821E0,9.910963265E0
6.543609167E-1,1.341510315E0,-2.152523804E-1,9.758956146E0,9.853081172E0
6.643929167E-1,1.334325256E0,-1.624122620E-1,9.699080658E0,9.791780596E0
6.744239167E-1,1.331780548E0,-1.291813660E-1,9.718091125E0,9.809771780E0
6.844549167E-1,1.370549927E0,-1.106199646E-1,9.743089142E0,9.839635659E0
6.944869166E-1,1.366208954E0,-9.325607300E-2,9.786498871E0,9.881841111E0
7.045179167E-1,1.353784790E0,-9.400451660E-2,9.801168365E0,9.894668839E0
7.145499167E-1,1.320404205E0,-9.864486694E-2,9.800569611E0,9.889608828E0
7.245809167E-1,1.305285645E0,-1.432521057E-1,9.806407471E0,9.893933457E0
7.346119166E-1,1.291963348E0,-1.755848694E-1,9.807155914E0,9.893447653E0
7.446439167E-1,1.304836578E0,-2.080673218E-1,9.804611206E0,9.893244736E0
7.546749167E-1,1.323248291E0,-2.418969727E-1,9.789642334E0,9.881629279E0
7.647059167E-1,1.342857513E0,-2.652484131E-1,9.763596497E0,9.859079043E0
7.747379167E-1,1.338516541E0,-2.755769348E-1,9.756860504E0,9.852101099E0
7.847689167E-1,1.336869965E0,-2.912942505E-1,9.759405212E0,9.854849757E0
7.947999167E-1,1.346749420E0,-3.001258850E-1,9.767638092E0,9.864611672E0
8.048319167E-1,1.359472961E0,-2.927911377E-1,9.792785797E0,9.891033670E0
8.148629167E-1,1.351389771E0,-2.944377136E-1,9.802814941E0,9.899905487E0
8.248949167E-1,1.351689148E0,-2.673440552E-1,9.803413696E0,9.899770527E0
8.349259167E-1,1.352886658E0,-2.350112915E-1,9.801467743E0,9.897186597E0
8.449569167E-1,1.343905334E0,-2.127076721E-1,9.823471985E0,9.917254052E0
8.549889167E-1,1.334025879E0,-1.835183716E-1,9.765392761E0,9.857798934E0
8.650199167E-1,1.327589264E0,-1.667532349E-1,9.749675446E0,9.841060471E0
8.750509167E-1,1.297202454E0,-1.288819885E-1,9.761949921E0,9.848604522E0
8.850829166E-1,1.268162842E0,-1.170565796E-1,9.720635834E0,9.803708495E0
8.951139167E-1,1.271306305E0,-1.390608215E-1,9.730066223E0,9.813752918E0
9.051449167E-1,1.307231598E0,-1.703457642E-1,9.779613190E0,9.868064971E0
9.151769167E-1,1.362317047E0,-2.128573608E-1,9.824669495E0,9.920954927E0
9.252079166E-1,1.360969849E0,-2.299218750E-1,9.842482452E0,9.938790863E0
9.352389167E-1,1.328038330E0,-2.511776733E-1,9.835447083E0,9.927879700E0
9.452709167E-1,1.324894867E0,-2.686912537E-1,9.829609222E0,9.922134794E0
9.553019167E-1,1.337768097E0,-2.809657288E-1,9.798923035E0,9.893809067E0
9.653339167E-1,1.343755646E0,-2.673440552E-1,9.762848053E0,9.858516835E0
9.753649167E-1,1.353485413E0,-2.499801636E-1,9.739346924E0,9.836121764E0
9.853959167E-1,1.332978058E0,-2.436932373E-1,9.734556885E0,9.828418725E0
9.954279167E-1,1.327289886E0,-2.257305908E-1,9.730814667E0,9.823512957E0
1.005458917E0,1.326541443E0,-2.088157654E-1,9.757758636E0,9.849729429E0
1.015489917E0,1.327888641E0,-2.393522644E-1,9.795180817E0,9.887676420E0
1.025521917E0,1.342408447E0,-2.225871277E-1,9.827513580E0,9.921271523E0
1.035552917E0,1.349892883E0,-1.960922241E-1,9.833800507E0,9.927955246E0
1.045583917E0,1.338067474E0,-1.953437805E-1,9.814790039E0,9.907506612E0
1.055615917E0,1.314117279E0,-1.974394226E-1,9.799970856E0,9.889656987E0
1.065646917E0,1.301094360E0,-2.074685669E-1,9.799222412E0,9.887398527E0
1.075677917E0,1.291514282E0,-1.913021851E-1,9.774972839E0,9.861779742E0
1.085709917E0,1.279090118E0,-1.667532349E-1,9.742191010E0,9.827215467E0
1.095740917E0,1.285526733E0,-1.887574768E-1,9.750124512E0,9.836317215E0
1.105772917E0,1.306932220E0,-1.957928467E-1,9.781559143E0,9.870425823E0
1.115803917E0,1.331481171E0,-2.109114075E-1,9.798773346E0,9.891070964E0
1.125834917E0,1.333277435E0,-2.155517578E-1,9.802665253E0,9.895268432E0
1.135866917E0,1.316512299E0,-2.281256104E-1,9.803862762E0,9.894491952E0
1.145897917E0,1.314117279E0,-2.395019531E-1,9.797426147E0,9.888064751E0
1.155928917E0,1.297052765E0,-2.553689575E-1,9.790839844E0,9.879681373E0
1.165960917E0,1.283431091E0,-2.609074402E-1,9.806108093E0,9.893180681E0
1.175991917E0,1.297202454E0,-2.698887634E-1,9.784403229E0,9.873708558E0
1.186022917E0,1.296753387E0,-2.877017212E-1,9.792935486E0,9.882607301E0
1.196054917E0,1.298100586E0,-2.836601257E-1,9.785600739E0,9.875399233E0
1.206085917E0,1.320853271E0,-2.754272461E-1,9.799821167E0,9.892270136E0
1.216116917E0,1.335373077E0,-2.704875183E-1,9.800719299E0,9.894972640E0
1.226148917E0,1.349144440E0,-2.673440552E-1,9.813742218E0,9.909651855E0
1.236179917E0,1.361418915E0,-2.604583740E-1,9.814340973E0,9.911739946E0
1.246210917E0,1.380130005E0,-2.366578674E-1,9.792037354E0,9.891651091E0
1.256242917E0,1.373394012E0,-2.354603577E-1,9.790390778E0,9.889054771E0
1.266273917E0,1.368753662E0,-2.213896179E-1,9.766440582E0,9.864373350E0
1.276305917E0,1.374292145E0,-2.230361938E-1,9.762548676E0,9.861327532E0
1.286336917E0,1.377136230E0,-2.314187622E-1,9.755812683E0,9.855249360E0
1.296367917E0,1.376537476E0,-2.336640930E-1,9.773925018E0,9.873148667E0
1.306412583E0,1.365161133E0,-2.454895020E-1,9.787397003E0,9.885194490E0
1.316443583E0,1.361418915E0,-2.332150269E-1,9.793683929E0,9.890606433E0
1.326474583E0,1.336570587E0,-2.354603577E-1,9.793983307E0,9.887566512E0
1.336506583E0,1.324445801E0,-2.374063110E-1,9.776469727E0,9.868631047E0
1.346537583E0,1.334474945E0,-2.540217590E-1,9.801467743E0,9.895156408E0
1.356568583E0,1.337169342E0,-2.442919922E-1,9.788744202E0,9.882672385E0
1.366600583E0,1.316362610E0,-2.573149109E-1,9.761800232E0,9.853515375E0
1.376631583E0,1.308578796E0,-2.754272461E-1,9.770332489E0,9.861421580E0
1.386662583E0,1.318158875E0,-2.763253784E-1,9.803114319E0,9.895198274E0
1.396694583E0,1.351539459E0,-2.763253784E-1,9.807904358E0,9.904443574E0
1.406725583E0,1.362167358E0,-2.719844055E-1,9.803114319E0,9.901036601E0
1.416757583E0,1.341809692E0,-2.799179077E-1,9.774823151E0,9.870459711E0
1.426788583E0,1.326242065E0,-2.689906311E-1,9.774224396E0,9.867458463E0
1.436819583E0,1.310375061E0,-2.814147949E-1,9.779164124E0,9.870578911E0
1.446851583E0,1.299148407E0,-3.049159241E-1,9.784103851E0,9.874687260E0
1.456882583E0,1.295705566E0,-3.004252625E-1,9.749675446E0,9.839983717E0
1.466913583E0,1.298100586E0,-2.697390747E-1,9.737850037E0,9.827692895E0
1.476945583E0,1.321751404E0,-2.712359619E-1,9.753118286E0,9.846009954E0
1.486976583E0,1.359023895E0,-3.020718384E-1,9.793384552E0,9.891843828E0
1.497007583E0,1.407972107E0,-3.296145630E-1,9.807006226E0,9.913042032E0
1.507039583E0,1.431173859E0,-3.303630066E-1,9.817484436E0,9.926751683E0
1.517070583E0,1.413809967E0,-3.258723450E-1,9.824669495E0,9.931222588E0
1.527101583E0,1.404828644E0,-3.141966248E-1,9.803264008E0,9.908392818E0
1.537133583E0,1.412911835E0,-2.995271301E-1,9.772577820E0,9.878730364E0
1.547164583E0,1.418899384E0,-2.891986084E-1,9.776020660E0,9.882686439E0
1.557196583E0,1.381327515E0,-2.514770508E-1,9.773026886E0,9.873366241E0
1.567227583E0,1.373394012E0,-1.884580994E-1,9.729467468E0,9.827729381E0
1.577258583E0,1.353186035E0,-1.215472412E-1,9.688003693E0,9.782806434E0
1.587290583E0,1.355281677E0,-9.624984741E-2,9.672286377E0,9.767250187E0
1.597321583E0,1.388362885E0,-9.205856323E-2,9.700427856E0,9.799710551E0
1.607352583E0,1.412612457E0,-1.266366577E-1,9.747130737E0,9.849775044E0
1.617384583E0,1.413211212E0,-1.531315613E-1,9.795330505E0,9.897934881E0
1.627415583E0,1.400337982E0,-1.715432739E-1,9.825717316E0,9.926484490E0
1.637446583E0,1.373992767E0,-2.210902405E-1,9.838889923E0,9.936825043E0
1.647478583E0,1.372495880E0,-2.526745605E-1,9.827064514E0,9.925663018E0
1.657509583E0,1.378034363E0,-2.890489197E-1,9.814490662E0,9.914976295E0
1.667540583E0,1.391656036E0,-3.170407104E-1,9.764045563E0,9.867816734E0
1.677572583E0,1.404828644E0,-3.387455750E-1,9.738897858E0,9.845528100E0
1.687603583E0,1.403930511E0,-3.369493103E-1,9.698930969E0,9.805805304E0
1.697634583E0,1.413510590E0,-3.300636292E-1,9.718689880E0,9.826489056E0
1.707666583E0,1.406924286E0,-3.354524231E-1,9.726773071E0,9.833721506E0
1.717697583E0,1.404828644E0,-3.177891541E-1,9.728719025E0,9.834760156E0
1.727729583E0,1.403182068E0,-3.035687256E-1,9.754615173E0,9.859695283E0
1.737760583E0,1.414259033E0,-2.772235107E-1,9.775571594E0,9.881233804E0
1.747791583E0,1.412612457E0,-2.418969727E-1,9.797276459E0,9.901546046E0
1.757823583E0,1.415306854E0,-2.230361938E-1,9.821526031E0,9.925482972E0
1.767854583E0,1.426683197E0,-2.076182556E-1,9.767937469E0,9.873759805E0
1.777885583E0,1.401236115E0,-1.769320679E-1,9.763895874E0,9.865517231E0
1.787917583E0,1.356329498E0,-1.609153748E-1,9.764644318E0,9.859705985E0
1.797948583E0,1.359772339E0,-1.571731567E-1,9.739496613E0,9.835216240E0
1.807979583E0,1.364562378E0,-1.899549866E-1,9.751621399E0,9.848463499E0
1.818011583E0,1.375938721E0,-2.189945984E-1,9.756261749E0,9.855242733E0
1.828042583E0,1.375938721E0,-2.085163879E-1,9.795031128E0,9.893397861E0
1.838073583E0,1.376836853E0,-2.486329651E-1,9.816137238E0,9.915344086E0
1.848105583E0,1.398541718E0,-2.927911377E-1,9.851912842E0,9.954990318E0
1.858136583E0,1.431473236E0,-3.098556519E-1,9.865085449E0,9.973215984E0
1.868168583E0,1.451381836E0,-3.150947571E-1,9.819280701E0,9.930965080E0
1.878199583E0,1.453776855E0,-2.947370911E-1,9.762398987E0,9.874450419E0
1.888230583E0,1.453627167E0,-3.005749512E-1,9.744286652E0,9.856698209E0
1.898262583E0,1.444945221E0,-2.841091919E-1,9.735604706E0,9.846348750E0
1.908293583E0,1.432970123E0,-2.719844055E-1,9.719887390E0,9.828712518E0
1.918324583E0,1.418450317E0,-2.716850281E-1,9.754615173E0,9.860949814E0
1.928356583E0,1.434766388E0,-2.658471680E-1,9.767787781E0,9.876178787E0
1.938387583E0,1.441652069E0,-2.595602417E-1,9.766290894E0,9.875533911E0
1.948418583E0,1.442400513E0,-2.490820312E-1,9.752669220E0,9.861902353E0
1.958450583E0,1.441352692E0,-2.561174011E-1,9.743987274E0,9.853343681E0
1.968481583E0,1.426383820E0,-2.683918762E-1,9.744286652E0,9.851788028E0
1.978512583E0,1.414109344E0,-2.796185303E-1,9.742789764E0,9.848849890E0
1.988544583E0,1.400936737E0,-2.832110596E-1,9.744885406E0,9.849143304E0
1.998575583E0,1.407223663E0,-2.848576355E-1,9.767039337E0,9.872004848E0
2.008606583E0,1.413809967E0,-2.793191528E-1,9.763895874E0,9.869677829E0
2.018638583E0,1.420096893E0,-2.691403198E-1,9.761800232E0,9.868224535E0
2.028669583E0,1.437909851E0,-2.709365845E-1,9.789492645E0,9.898240128E0
2.038701583E0,1.442400513E0,-2.604583740E-1,9.802216187E0,9.911195688E0
2.048732583E0,1.432371368E0,-2.538720703E-1,9.809850311E0,9.917121654E0
2.058763583E0,1.420845337E0,-2.414479065E-1,9.791438599E0,9.896937324E0
2.068795583E0,1.405427399E0,-2.026785278E-1,9.768985291E0,9.871645170E0
2.078826583E0,1.384171600E0,-2.013313293E-1,9.774673462E0,9.874244610E0
2.088857583E0,1.377884674E0,-1.995350647E-1,9.756860504E0,9.855694157E0
2.098889583E0,1.378782806E0,-1.850152588E-1,9.761351166E0,9.859982214E0
2.108920583E0,1.385219421E0,-1.924996948E-1,9.752968597E0,9.852729847E0
2.118951583E0,1.401086426E0,-2.061213684E-1,9.733059998E0,9.835547067E0
2.128983583E0,1.403481445E0,-2.221380615E-1,9.759105835E0,9.862010555E0
2.139014583E0,1.445244598E0,-2.565664673E-1,9.788893890E0,9.898333289E0
2.149045583E0,1.449735260E0,-2.411485291E-1,9.810748444E0,9.920215217E0
2.159077583E0,1.466949463E0,-2.609074402E-1,9.808203735E0,9.920729506E0
2.169108583E0,1.489552460E0,-2.662962341E-1,9.774823151E0,9.891251076E0
2.179140583E0,1.467697906E0,-2.601589966E-1,9.748028870E0,9.861332906E0
2.189171583E0,1.459914093E0,-2.917433167E-1,9.758058014E0,9.870975612E0
2.199202583E0,1.458417206E0,-3.062631226E-1,9.747280426E0,9.860540226E0
2.209234583E0,1.441652069E0,-3.025209045E-1,9.720785522E0,9.831762343E0
2.219265583E0,1.417252808E0,-2.851570129E-1,9.677076416E0,9.784463603E0
2.229296583E0,1.410516815E0,-2.653981018E-1,9.684860229E0,9.790633866E0
2.239328583E0,1.429826660E0,-2.689906311E-1,9.718091125E0,9.826395848E0
2.249359583E0,1.455423431E0,-3.124003601E-1,9.752519531E0,9.865469505E0
2.259390583E0,1.494941254E0,-3.363505554E-1,9.791887665E0,9.911056709E0
2.269422583E0,1.534010010E0,-3.647914124E-1,9.810149689E0,9.936060406E0
2.279453583E0,1.493893433E0,-3.348536682E-1,9.793683929E0,9.912622735E0
2.289484583E0,1.434616699E0,-2.902464294E-1,9.773925018E0,9.882913453E0
2.299516583E0,1.413809967E0,-2.823129272E-1,9.753717041E0,9.859693470E0
2.309535042E0,1.408271484E0,-2.647993469E-1,9.773026886E0,9.877520022E0
2.319566042E0,1.396745453E0,-2.231858826E-1,9.771679688E0,9.873521850E0
2.329598042E0,1.382075958E0,-1.811233521E-1,9.758357391E0,9.857407296E0
2.339629042E0,1.389111328E0,-1.297801208E-1,9.741891632E0,9.841286793E0
2.349661042E0,1.412911835E0,-1.113684082E-1,9.721533966E0,9.824303814E0
2.359692042E0,1.421294403E0,-1.362167358E-1,9.738299103E0,9.842413433E0
2.369723042E0,1.423240356E0,-1.580712891E-1,9.782457275E0,9.886711789E0
2.379755042E0,1.430575104E0,-1.863624573E-1,9.809700623E0,9.915215701E0
2.389786042E0,1.425186310E0,-2.341131592E-1,9.817783813E0,9.923449199E0
2.399817042E0,1.434167633E0,-2.767744446E-1,9.844428406E0,9.952196317E0
2.409849042E0,1.438957672E0,-3.016227722E-1,9.825268250E0,9.934660118E0
2.419880042E0,1.444645844E0,-3.065625000E-1,9.788594513E0,9.899371936E0
2.429911042E0,1.455722809E0,-3.303630066E-1,9.719438324E0,9.833399715E0
2.439943042E0,1.467099152E0,-3.207829285E-1,9.718989258E0,9.834329352E0
2.449974042E0,1.484163666E0,-3.430865479E-1,9.715546417E0,9.834240812E0
2.460005042E0,1.451381836E0,-3.150947571E-1,9.705966339E0,9.818939684E0
2.470037042E0,1.445993042E0,-3.094065857E-1,9.704170074E0,9.816187913E0
2.480068042E0,1.458267517E0,-2.906954956E-1,9.718540192E0,9.831636256E0
2.490100042E0,1.452729034E0,-2.736309814E-1,9.737400970E0,9.848973206E0
2.500131042E0,1.455573120E0,-2.824626160E-1,9.772727509E0,9.884567830E0
2.510162042E0,1.465153198E0,-2.709365845E-1,9.778116302E0,9.890987764E0
2.520194042E0,1.444645844E0,-2.553689575E-1,9.752070465E0,9.861799698E0
2.530225042E0,1.455423431E0,-2.433938599E-1,9.807305603E0,9.917698378E0
2.540256042E0,1.435065765E0,-2.255809021E-1,9.829758911E0,9.936521562E0
2.550288042E0,1.436862030E0,-2.029779053E-1,9.773326263E0,9.880469562E0
2.560319042E0,1.426683197E0,-2.320175171E-1,9.753417664E0,9.859939817E0
2.570350042E0,1.414109344E0,-2.474354553E-1,9.768087158E0,9.873016574E0
2.580382042E0,1.395398254E0,-2.302212524E-1,9.752818909E0,9.854826979E0
2.590413042E0,1.385518799E0,-2.381547546E-1,9.782157898E0,9.882661239E0
2.600444042E0,1.423390045E0,-2.853067017E-1,9.814191284E0,9.920977255E0
2.610476042E0,1.469793549E0,-3.065625000E-1,9.838740234E0,9.952642013E0
2.620507042E0,1.481918335E0,-2.983296204E-1,9.812245331E0,9.928002868E0
2.630538042E0,1.487007751E0,-2.772235107E-1,9.752968597E0,9.869571490E0
2.640570042E0,1.466051331E0,-2.621049500E-1,9.714199219E0,9.827699221E0
2.650601042E0,1.435963898E0,-2.577639771E-1,9.705966339E0,9.814999601E0
2.660633042E0,1.406924286E0,-2.544708252E-1,9.745035095E0,9.849360403E0
2.670664042E0,1.442849579E0,-2.501298523E-1,9.764943695E0,9.874133138E0
2.680695042E0,1.455872498E0,-2.495310974E-1,9.746382294E0,9.857677126E0
2.690727042E0,1.453627167E0,-2.362088013E-1,9.727222137E0,9.838072832E0
2.700758042E0,1.427132263E0,-2.383044434E-1,9.739197235E0,9.846088477E0
2.710789042E0,1.421743469E0,-2.766247559E-1,9.753567352E0,9.860524927E0
2.720821042E0,1.426234131E0,-2.932402039E-1,9.767488403E0,9.875422185E0
2.730852042E0,1.414408722E0,-2.929408264E-1,9.774523773E0,9.880672110E0
2.740883042E0,1.398841095E0,-3.091072083E-1,9.771529999E0,9.875986138E0
2.750915042E0,1.417851562E0,-3.085084534E-1,9.776320038E0,9.883416110E0
2.760946042E0,1.422042847E0,-3.005749512E-1,9.773475952E0,9.880960649E0
2.770977042E0,1.430275726E0,-3.029699707E-1,9.764644318E0,9.873487636E0
2.781009042E0,1.424587555E0,-2.894979858E-1,9.774224396E0,9.881736756E0
2.791040042E0,1.442101135E0,-2.748284912E-1,9.771679688E0,9.881341523E0
2.801071042E0,1.446591797E0,-2.646496582E-1,9.767787781E0,9.877871501E0
2.811103042E0,1.444496155E0,-2.670446777E-1,9.765243073E0,9.875112874E0
2.821134042E0,1.429676971E0,-2.546205139E-1,9.766440582E0,9.873812308E0
2.831165042E0,1.413360901E0,-2.350112915E-1,9.762249298E0,9.866829820E0
2.841197042E0,1.417402496E0,-2.315684509E-1,9.753417664E0,9.858590665E0
2.851228042E0,1.399888916E0,-2.353106689E-1,9.760003967E0,9.862694233E0
2.861260042E0,1.402583313E0,-2.459385681E-1,9.769284668E0,9.872519874E0
2.871291042E0,1.442699890E0,-2.345622253E-1,9.778864746E0,9.887497061E0
2.881322042E0,1.437460785E0,-2.324665833E-1,9.770781555E0,9.878689509E0
2.891354042E0,1.438209229E0,-2.252815247E-1,9.746232605E0,9.854351706E0
2.901385042E0,1.419797516E0,-2.321672058E-1,9.708511047E0,9.814525631E0
2.911416042E0,1.407223663E0,-2.618055725E-1,9.736353149E0,9.841005703E0
2.921448042E0,1.418749695E0,-2.956352234E-1,9.774374084E0,9.881226626E0
2.931479042E0,1.432670746E0,-2.811154175E-1,9.781708832E0,9.890065673E0
2.941510042E0,1.430275726E0,-2.537223816E-1,9.712402954E0,9.820429463E0
2.951542042E0,1.426683197E0,-2.574645996E-1,9.724827118E0,9.832292481E0
2.961573042E0,1.458866272E0,-2.890489197E-1,9.739047546E0,9.851948396E0
2.971604042E0,1.464554443E0,-3.543132019E-1,9.786349182E0,9.901670964E0
2.981636042E0,1.498533783E0,-3.745211792E-1,9.802216187E0,9.923170450E0
2.991667042E0,1.503623199E0,-3.861968994E-1,9.824370117E0,9.946269601E0
3.001698042E0,1.458866272E0,-3.854484558E-1,9.813143463E0,9.928476517E0
3.011730042E0,1.419348450E0,-3.393443298E-1,9.761949921E0,9.870429112E0
3.021761042E0,1.399589539E0,-3.227288818E-1,9.738598480E0,9.843947641E0
3.031793042E0,1.393452301E0,-3.064128113E-1,9.739047546E0,9.842999809E0
3.041824042E0,1.384171600E0,-2.398013306E-1,9.727072449E0,9.827989322E0
3.051855042E0,1.383572845E0,-1.712438965E-1,9.714947662E0,9.814469235E0
3.061887042E0,1.409468994E0,-1.204994202E-1,9.700128479E0,9.802735101E0
3.071918042E0,1.452579346E0,-1.077758789E-1,9.694589996E0,9.803401328E0
3.081949042E0,1.440005493E0,-1.323248291E-1,9.730215912E0,9.837084292E0
3.091981042E0,1.442400513E0,-1.502874756E-1,9.790390778E0,9.897214615E0
3.102012042E0,1.426832886E0,-1.942959595E-1,9.820328522E0,9.925344089E0
3.112043042E0,1.415456543E0,-2.176473999E-1,9.840386810E0,9.944048481E0
3.122075042E0,1.419049072E0,-2.639012146E-1,9.831854553E0,9.937238453E0
3.132106042E0,1.423390045E0,-3.002755737E-1,9.810598755E0,9.917865323E0
3.142137042E0,1.433269501E0,-3.323089600E-1,9.780211945E0,9.890259672E0
3.152169042E0,1.426383820E0,-3.441343689E-1,9.746531982E0,9.856362663E0
3.162200042E0,1.439107361E0,-3.638932800E-1,9.722581787E0,9.835245036E0
3.172232042E0,1.426832886E0,-3.550616455E-1,9.717192993E0,9.827805478E0
3.182263042E0,1.420096893E0,-3.445834351E-1,9.727671204E0,9.836818590E0
3.192294042E0,1.427132263E0,-3.441343689E-1,9.746831360E0,9.856767042E0
3.202326042E0,1.450633392E0,-3.113525391E-1,9.762848053E0,9.874942012E0
3.212357042E0,1.441053314E0,-2.909948730E-1,9.774374084E0,9.884315930E0
3.222388042E0,1.429676971E0,-2.625540161E-1,9.792486420E0,9.899782883E0
3.232420042E0,1.431922302E0,-2.501298523E-1,9.815239105E0,9.922292332E0
3.242451042E0,1.426234131E0,-2.243833923E-1,9.795779572E0,9.901605381E0
3.252482042E0,1.418450317E0,-1.954934692E-1,9.727820892E0,9.832635370E0
3.262514042E0,1.400337982E0,-1.526824951E-1,9.781409454E0,9.882319026E0
3.272545042E0,1.393751678E0,-1.553768921E-1,9.792785797E0,9.892691211E0
3.282576042E0,1.398541718E0,-1.344204712E-1,9.745933228E0,9.846684837E0
3.292608042E0,1.418150940E0,-1.683998108E-1,9.700876923E0,9.805433374E0
3.302639042E0,1.399589539E0,-1.800755310E-1,9.673483887E0,9.775866641E0
3.312671458E0,1.379082184E0,-2.306703186E-1,9.743388519E0,9.843205591E0
3.322702458E0,1.403481445E0,-2.972817993E-1,9.833351440E0,9.937451242E0
3.332733458E0,1.448687439E0,-3.034190369E-1,9.882149963E0,9.992379412E0
3.342765458E0,1.484612732E0,-3.146456909E-1,9.860295410E0,9.976397268E0
3.352796458E0,1.478924561E0,-3.068618774E-1,9.810000000E0,9.925597315E0
3.362827458E0,1.464404755E0,-3.016227722E-1,9.751172333E0,9.865131497E0
3.372859458E0,1.432371368E0,-2.710862732E-1,9.717192993E0,9.825935842E0
3.382890458E0,1.411414948E0,-2.564167786E-1,9.729467468E0,9.834651948E0
3.392921458E0,1.392703857E0,-2.508782959E-1,9.751920776E0,9.854061233E0
3.402953458E0,1.385967865E0,-2.498304749E-1,9.772877197E0,9.873826558E0
3.412984458E0,1.410816193E0,-2.293231201E-1,9.760902100E0,9.864998795E0
3.423015458E0,1.429527283E0,-2.167492676E-1,9.739346924E0,9.846085872E0
3.433047458E0,1.423539734E0,-2.231858826E-1,9.749675446E0,9.855579567E0
3.443078458E0,1.437161407E0,-2.423460388E-1,9.739646301E0,9.848089895E0
3.453109458E0,1.415606232E0,-2.664459229E-1,9.735754395E0,9.841740093E0
3.463141458E0,1.401535492E0,-2.719844055E-1,9.724378052E0,9.828621762E0
3.473172458E0,1.394799500E0,-2.658471680E-1,9.743538208E0,9.846455056E0
3.483203458E0,1.413360901E0,-2.631527710E-1,9.770033112E0,9.875241031E0
3.493235458E0,1.412462769E0,-2.659968567E-1,9.768386536E0,9.873559688E0
3.503266458E0,1.414259033E0,-2.606080627E-1,9.775272217E0,9.880485418E0
3.513298458E0,1.397044830E0,-2.628533936E-1,9.759554901E0,9.862542169E0
3.523329458E0,1.403032379E0,-2.555186462E-1,9.781409454E0,9.884824761E0
3.533360458E0,1.408121796E0,-2.549198914E-1,9.787546692E0,9.891605602E0
3.543392458E0,1.400936737E0,-2.465373230E-1,9.778715057E0,9.881633092E0
3.553423458E0,1.382974091E0,-2.356100464E-1,9.792336731E0,9.892319651E0
3.563454458E0,1.379680939E0,-2.297721863E-1,9.800419922E0,9.899724511E0
3.573486458E0,1.386117554E0,-2.148033142E-1,9.806856537E0,9.906659249E0
3.583517458E0,1.393901367E0,-2.171983337E-1,9.782606964E0,9.883801655E0
3.593548458E0,1.398691406E0,-2.200424194E-1,9.801467743E0,9.903207876E0
3.603580458E0,1.407972107E0,-2.435435486E-1,9.795031128E0,9.898703638E0
3.613611458E0,1.425036621E0,-2.496807861E-1,9.795031128E0,9.901298130E0
3.623642458E0,1.436263275E0,-2.514770508E-1,9.779912567E0,9.888012071E0
3.633674458E0,1.420545959E0,-2.392025757E-1,9.767937469E0,9.873589575E0
3.643705458E0,1.416504364E0,-2.454895020E-1,9.754615173E0,9.859983108E0
3.653736458E0,1.420096893E0,-2.478845215E-1,9.787247314E0,9.892842459E0
3.663768458E0,1.420396271E0,-2.630030823E-1,9.804910583E0,9.910750110E0
3.673799458E0,1.415606232E0,-2.263293457E-1,9.766590271E0,9.871243665E0
3.683831458E0,1.373992767E0,-2.097138977E-1,9.704768829E0,9.803793861E0
3.693862458E0,1.346000977E0,-2.059716797E-1,9.693093109E0,9.788268334E0
3.703893458E0,1.329235840E0,-2.276765442E-1,9.735005951E0,9.827972598E0
3.713925458E0,1.345252533E0,-2.330653381E-1,9.771230621E0,9.866152831E0
3.723956458E0,1.373244324E0,-2.200424194E-1,9.734706573E0,9.833551277E0
3.733987458E0,1.346899109E0,-2.148033142E-1,9.710906067E0,9.806221205E0
3.744019458E0,1.363963623E0,-2.326162720E-1,9.784702606E0,9.882049999E0
3.754050458E0,1.428778839E0,-2.691403198E-1,9.826914825E0,9.933886474E0
3.764081458E0,1.451830902E0,-2.613565063E-1,9.854008484E0,9.963814701E0
3.774113458E0,1.442250824E0,-2.387535095E-1,9.805659027E0,9.914032461E0
3.784144458E0,1.383572845E0,-2.445913696E-1,9.766440582E0,9.866988416E0
3.794175458E0,1.369502106E0,-2.498304749E-1,9.766590271E0,9.865304699E0
3.804207458E0,1.379980316E0,-2.748284912E-1,9.776619415E0,9.877356102E0
3.814238458E0,1.411115570E0,-2.808160400E-1,9.792935486E0,9.898064974E0
3.824269458E0,1.423988800E0,-2.445913696E-1,9.777667236E0,9.883842655E0
3.834301458E0,1.398990784E0,-1.872605896E-1,9.755662994E0,9.857241105E0
3.844332458E0,1.375040588E0,-1.435514832E-1,9.714348907E0,9.812233097E0
3.854364458E0,1.368753662E0,-1.335223389E-1,9.694739685E0,9.791797198E0
3.864395458E0,1.388811951E0,-1.237925720E-1,9.712253265E0,9.811828919E0
3.874426458E0,1.403331757E0,-1.257385254E-1,9.752818909E0,9.854066514E0
3.884458458E0,1.410067749E0,-1.408570862E-1,9.792336731E0,9.894341334E0
3.894489458E0,1.395248566E0,-1.577719116E-1,9.819879456E0,9.919760232E0
3.904520458E0,1.378333740E0,-1.749861145E-1,9.815837860E0,9.913682310E0
3.914552458E0,1.356778564E0,-1.989363098E-1,9.804611206E0,9.900041648E0
3.924583458E0,1.354982300E0,-2.240840149E-1,9.779762878E0,9.875725423E0
3.934614458E0,1.369352417E0,-2.359094238E-1,9.763596497E0,9.861977279E0
3.944646458E0,1.390009460E0,-2.266287231E-1,9.730664978E0,9.832056133E0
3.954677458E0,1.400487671E0,-2.421963501E-1,9.712852020E0,9.816288461E0
3.964708458E0,1.401685181E0,-2.504292297E-1,9.711355133E0,9.815184902E0
3.974740458E0,1.394350433E0,-2.547702026E-1,9.739795990E0,9.842395385E0
3.984771458E0,1.390907593E0,-2.450404358E-1,9.757608948E0,9.859290092E0
3.994802458E0,1.403780823E0,-2.345622253E-1,9.780511322E0,9.883522740E0
4.004834458E0,1.392105103E0,-2.321672058E-1,9.795180817E0,9.896333940E0
4.014865458E0,1.384021912E0,-2.291734314E-1,9.800569611E0,9.900464727E0
4.024897458E0,1.388512573E0,-2.073188782E-1,9.800270233E0,9.900315395E0
4.034928458E0,1.394949188E0,-1.962419128E-1,9.791288910E0,9.892104561E0
4.044959458E0,1.382824402E0,-1.686991882E-1,9.748328247E0,9.847363422E0
4.054991458E0,1.361119537E0,-1.576222229E-1,9.740245056E0,9.836150920E0
4.065022458E0,1.328038330E0,-1.672023010E-1,9.767338715E0,9.858628098E0
4.075053458E0,1.305285645E0,-1.621128845E-1,9.740245056E0,9.828653263E0
4.085085458E0,1.322799225E0,-1.559756470E-1,9.778864746E0,9.869160142E0
4.095116458E0,1.377285919E0,-1.945953369E-1,9.788444824E0,9.886780868E0
4.105147458E0,1.417252808E0,-1.905537415E-1,9.816286926E0,9.919899459E0
4.115179458E0,1.408421173E0,-2.016307068E-1,9.843530273E0,9.945822911E0
4.125210458E0,1.388662262E0,-2.206411743E-1,9.829459534E0,9.929518625E0
4.135241458E0,1.374890900E0,-2.233355713E-1,9.804910583E0,9.903356770E0
4.145273458E0,1.381477203E0,-2.182461548E-1,9.795929260E0,9.895268603E0
4.155304458E0,1.400188293E0,-1.986369324E-1,9.755962372E0,9.857930091E0
4.165335458E0,1.403032379E0,-1.853146362E-1,9.737251282E0,9.839558115E0
4.175367458E0,1.390907593E0,-1.803749084E-1,9.727970581E0,9.828558931E0
4.185398458E0,1.379381561E0,-1.927990723E-1,9.734556885E0,9.833690188E0
4.195429458E0,1.346749420E0,-1.974394226E-1,9.740394745E0,9.835039711E0
4.205461458E0,1.357077942E0,-2.118095398E-1,9.777367859E0,9.873370553E0
4.215492458E0,1.388961639E0,-2.329156494E-1,9.801767120E0,9.902429137E0
4.225524458E0,1.397793274E0,-2.176473999E-1,9.822124786E0,9.923473774E0
4.235555458E0,1.418300629E0,-2.146536255E-1,9.823471985E0,9.927651016E0
4.245586458E0,1.401685181E0,-2.088157654E-1,9.776020660E0,9.878203547E0
4.255618458E0,1.369651794E0,-2.053729248E-1,9.745933228E0,9.843847751E0
4.265649458E0,1.341210938E0,-2.002835083E-1,9.734107819E0,9.828113516E0
4.275680458E0,1.325194244E0,-2.022294617E-1,9.727072449E0,9.819010895E0
4.285712458E0,1.342857513E0,-2.016307068E-1,9.766290894E0,9.860241329E0
4.295743458E0,1.362167358E0,-1.990859985E-1,9.783205719E0,9.879587506E0
4.305774417E0,1.374292145E0,-1.974394226E-1,9.782906342E0,9.880937087E0
4.315806417E0,1.372495880E0,-1.898052979E-1,9.784852295E0,9.882464542E0
4.325837417E0,1.369951172E0,-1.962419128E-1,9.791288910E0,9.888610399E0
4.335868417E0,1.383273468E0,-1.996847534E-1,9.783205719E0,9.882531742E0
4.345900417E0,1.365161133E0,-1.830693054E-1,9.795330505E0,9.891697478E0
4.355931417E0,1.367107086E0,-1.938468933E-1,9.789492645E0,9.886390881E0
4.365962417E0,1.350341949E0,-1.862127686E-1,9.785001984E0,9.879492011E0
4.375994417E0,1.343755646E0,-1.960922241E-1,9.770931244E0,9.864848137E0
4.386025417E0,1.340761871E0,-1.963916016E-1,9.778415680E0,9.871860274E0
4.396057417E0,1.346000977E0,-1.993853760E-1,9.790390778E0,9.884494157E0
4.406088417E0,1.345851288E0,-2.071691895E-1,9.786648560E0,9.880927324E0
4.416119417E0,1.351539459E0,-2.137554932E-1,9.785151672E0,9.880361510E0
4.426151417E0,1.361568604E0,-2.236349487E-1,9.785001984E0,9.881808816E0
4.436182417E0,1.379980316E0,-1.932481384E-1,9.777218170E0,9.876015678E0
4.446213417E0,1.393003235E0,-2.118095398E-1,9.780361633E0,9.881335688E0
4.456245417E0,1.404229889E0,-1.993853760E-1,9.754315796E0,9.856890623E0
4.466276417E0,1.403331757E0,-1.927990723E-1,9.742191010E0,9.844632912E0
4.476307417E0,1.395248566E0,-1.960922241E-1,9.764195251E0,9.865327143E0
4.486339417E0,1.396446075E0,-1.871109009E-1,9.753118286E0,9.854358855E0
4.496370417E0,1.395398254E0,-1.823208618E-1,9.764644318E0,9.865528665E0
4.506401417E0,1.373992767E0,-1.778302002E-1,9.757309570E0,9.855179844E0
4.516433417E0,1.356179810E0,-1.770817566E-1,9.760453033E0,9.855811739E0
4.526464417E0,1.345252533E0,-1.975891113E-1,9.774374084E0,9.868492011E0
4.536496417E0,1.352437592E0,-1.769320679E-1,9.797426147E0,9.891913440E0
4.546527417E0,1.353186035E0,-1.904040527E-1,9.802066498E0,9.896861815E0
4.556558417E0,1.343156891E0,-1.945953369E-1,9.811347198E0,9.904770145E0
4.566590417E0,1.349144440E0,-2.001338196E-1,9.814640350E0,9.908956023E0
4.576621417E0,1.348845062E0,-2.062710571E-1,9.787995758E0,9.882651047E0
4.586652417E0,1.340013428E0,-1.856140137E-1,9.799072723E0,9.892012676E0
4.596684417E0,1.342857513E0,-1.927990723E-1,9.793833618E0,9.887346192E0
4.606715417E0,1.355730743E0,-1.785786438E-1,9.781858521E0,9.876975868E0
4.616746417E0,1.348695374E0,-1.817221069E-1,9.777816925E0,9.872066955E0
4.626778417E0,1.355431366E0,-1.817221069E-1,9.782008209E0,9.877140361E0
4.636809417E0,1.372645569E0,-1.902543640E-1,9.788744202E0,9.886347436E0
4.646840417E0,1.360371094E0,-1.751358032E-1,9.767039337E0,9.862876836E0
4.656872417E0,1.351988525E0,-1.770817566E-1,9.757758636E0,9.852567408E0
4.666903417E0,1.329984283E0,-1.872605896E-1,9.751172333E0,9.843235575E0
4.676934417E0,1.325044556E0,-2.056723022E-1,9.768685913E0,9.860287452E0
4.686966417E0,1.360670471E0,-1.992356873E-1,9.804311829E0,9.900285320E0
4.696997417E0,1.356329498E0,-1.636097717E-1,9.774972839E0,9.869979325E0
4.707028417E0,1.336271210E0,-1.640588379E-1,9.747130737E0,9.839669388E0
4.717060417E0,1.331930237E0,-1.660047913E-1,9.758207703E0,9.850086970E0
4.727091417E0,1.333876190E0,-1.998344421E-1,9.790390778E0,9.882859458E0
4.737123417E0,1.335223389E0,-2.103126526E-1,9.790241089E0,9.883110517E0
4.747154417E0,1.318607941E0,-1.875599670E-1,9.719588013E0,9.810417768E0
4.757185417E0,1.305884399E0,-1.936972046E-1,9.746382294E0,9.835386138E0
4.767217417E0,1.340163116E0,-2.273771667E-1,9.831106110E0,9.924635252E0
4.777248417E0,1.393152924E0,-2.345622253E-1,9.837542725E0,9.938467757E0
4.787279417E0,1.414408722E0,-2.177970886E-1,9.857601013E0,9.960937975E0
4.797311417E0,1.407523041E0,-1.954934692E-1,9.745783539E0,9.848839302E0
4.807342417E0,1.359772339E0,-1.865121460E-1,9.712852020E0,9.809345644E0
4.817373417E0,1.363963623E0,-2.508782959E-1,9.742640076E0,9.840852216E0
4.827405417E0,1.420545959E0,-3.011737061E-1,9.819580078E0,9.926369393E0
4.837436417E0,1.458117828E0,-2.921923828E-1,9.876461792E0,9.987791624E0
4.847467417E0,1.439855804E0,-2.468367004E-1,9.840686188E0,9.948528421E0
4.857499417E0,1.393302612E0,-1.862127686E-1,9.761201477E0,9.861897467E0
4.867530417E0,1.352587280E0,-1.234931946E-1,9.668993225E0,9.763922004E0
4.877561417E0,1.340612183E0,-9.011260986E-2,9.683513031E0,9.776286919E0
4.887593417E0,1.350192261E0,-1.088237000E-1,9.726473694E0,9.820343795E0
4.897624417E0,1.364562378E0,-9.729766846E-2,9.748477936E0,9.843999156E0
4.907656417E0,1.350641327E0,-1.026864624E-1,9.779014435E0,9.872380656E0
4.917687417E0,1.329235840E0,-1.154100037E-1,9.800270233E0,9.890676621E0
4.927718417E0,1.319057007E0,-1.357676697E-1,9.809850311E0,9.899065985E0
4.937750417E0,1.303040314E0,-1.806742859E-1,9.828561401E0,9.916207767E0
4.947781417E0,1.313967590E0,-2.124082947E-1,9.816436615E0,9.906263470E0
4.957812417E0,1.335822144E0,-2.359094238E-1,9.778415680E0,9.872055878E0
4.967844417E0,1.360520782E0,-2.644999695E-1,9.754016418E0,9.851995398E0
4.977875417E0,1.354084167E0,-2.737806702E-1,9.748477936E0,9.845878420E0
4.987906417E0,1.367107086E0,-2.971321106E-1,9.760303345E0,9.860060378E0
4.997938417E0,1.377585297E0,-2.878514099E-1,9.780661011E0,9.881393095E0
5.007969417E0,1.392254791E0,-2.633024597E-1,9.784103851E0,9.886171643E0
5.018000417E0,1.377285919E0,-2.365081787E-1,9.795180817E0,9.894363034E0
5.028032417E0,1.375938721E0,-2.109114075E-1,9.795031128E0,9.893448629E0
5.038063417E0,1.368903351E0,-1.779798889E-1,9.811945953E0,9.908574903E0
5.048094417E0,1.381776581E0,-1.416055298E-1,9.796677704E0,9.894657785E0
5.058126417E0,1.373693390E0,-1.276844788E-1,9.775122528E0,9.871998647E0
5.068157417E0,1.350341949E0,-1.002914429E-1,9.698781281E0,9.792846373E0
5.078189417E0,1.330882416E0,-1.004411316E-1,9.714648285E0,9.805902698E0
5.088220417E0,1.281335449E0,-9.819580078E-2,9.700128479E0,9.784884029E0
5.098251417E0,1.294508057E0,-1.207987976E-1,9.708810425E0,9.795475656E0
5.108283417E0,1.346150665E0,-1.868115234E-1,9.782606964E0,9.876559076E0
5.118314417E0,1.398541718E0,-2.170486450E-1,9.820328522E0,9.921788212E0
5.128345417E0,1.400936737E0,-2.439926147E-1,9.837542725E0,9.939788881E0
5.138377417E0,1.379082184E0,-2.698887634E-1,9.845625916E0,9.945403827E0
5.148408417E0,1.340761871E0,-2.812651062E-1,9.828112335E0,9.923131790E0
5.158439417E0,1.345551910E0,-2.719844055E-1,9.809550934E0,9.905138817E0
5.168471417E0,1.376687164E0,-2.565664673E-1,9.789342957E0,9.889000426E0
5.178502417E0,1.393901367E0,-2.496807861E-1,9.784552917E0,9.886494693E0
5.188533417E0,1.396296387E0,-2.107617188E-1,9.736652527E0,9.838519529E0
5.198565417E0,1.390608215E0,-1.863624573E-1,9.718689880E0,9.819442712E0
5.208596417E0,1.369053040E0,-1.775308228E-1,9.713301086E0,9.810914403E0
5.218627417E0,1.367705841E0,-1.845661926E-1,9.750124512E0,9.847314961E0
5.228659417E0,1.378483429E0,-1.956431580E-1,9.793683929E0,9.892155363E0
5.238690417E0,1.401086426E0,-1.953437805E-1,9.801916809E0,9.903472901E0
5.248722417E0,1.399290161E0,-1.778302002E-1,9.786199493E0,9.887332151E0
5.258753417E0,1.357077942E0,-1.730401611E-1,9.787247314E0,9.882399174E0
5.268784417E0,1.326391754E0,-1.899549866E-1,9.770781555E0,9.862229473E0
5.278816417E0,1.327738953E0,-1.944456482E-1,9.755363617E0,9.847223930E0
5.288847417E0,1.303938446E0,-2.044747925E-1,9.751920776E0,9.840834530E0
5.298878417E0,1.310225372E0,-2.171983337E-1,9.772577820E0,9.862410602E0
5.308910292E0,1.330283661E0,-2.492317200E-1,9.795929260E0,9.888983828E0
5.318941292E0,1.332229614E0,-2.534230042E-1,9.796378326E0,9.889797130E0
5.328972292E0,1.340163116E0,-2.457888794E-1,9.812694397E0,9.906837067E0
5.339004292E0,1.349443817E0,-2.612068176E-1,9.809401245E0,9.905229952E0
5.349035292E0,1.346150665E0,-2.517764282E-1,9.796677704E0,9.891936464E0
5.359066292E0,1.335073700E0,-2.451901245E-1,9.785900116E0,9.879594175E0
5.369098292E0,1.330133972E0,-2.360591125E-1,9.776769104E0,9.869660298E0
5.379129292E0,1.342258759E0,-2.285746765E-1,9.764644318E0,9.859116776E0
5.389160292E0,1.332079926E0,-2.155517578E-1,9.770781555E0,9.863522276E0
5.399192292E0,1.341510315E0,-2.032772827E-1,9.758207703E0,9.852085523E0
5.409223292E0,1.358574829E0,-1.948947144E-1,9.777367859E0,9.873228032E0
5.419255292E0,1.364861755E0,-2.061213684E-1,9.769733734E0,9.866763951E0
5.429286292E0,1.374890900E0,-2.198927307E-1,9.786199493E0,9.884754844E0
5.439317292E0,1.368753662E0,-2.317181396E-1,9.783654785E0,9.881653750E0
5.449349292E0,1.380130005E0,-2.151026917E-1,9.780062256E0,9.879303909E0
5.459380292E0,1.390159149E0,-2.257305908E-1,9.777667236E0,9.878576484E0
5.469411292E0,1.391057281E0,-2.326162720E-1,9.755812683E0,9.857232461E0
5.479443292E0,1.385818176E0,-2.249821472E-1,9.757010193E0,9.857502569E0
5.489474292E0,1.384620667E0,-2.311193848E-1,9.752369843E0,9.852883238E0
5.499505292E0,1.390458527E0,-2.354603577E-1,9.765841827E0,9.867141587E0
5.509537292E0,1.380279694E0,-2.384541321E-1,9.780810699E0,9.880601720E0
5.519568292E0,1.374890900E0,-2.276765442E-1,9.792187042E0,9.890858844E0
5.529599292E0,1.374142456E0,-2.299218750E-1,9.789941711E0,9.888583835E0
5.539631292E0,1.350491638E0,-2.374063110E-1,9.799072723E0,9.894544742E0
5.549662292E0,1.325792999E0,-2.261796570E-1,9.790839844E0,9.882784484E0
5.559693292E0,1.320553894E0,-2.213896179E-1,9.763147430E0,9.854538229E0
5.569725292E0,1.315763855E0,-2.174977112E-1,9.786648560E0,9.877096223E0
5.579756292E0,1.344653778E0,-2.053729248E-1,9.793085175E0,9.887102157E0
5.589787292E0,1.361269226E0,-2.040257263E-1,9.793234863E0,9.889495917E0
5.599819292E0,1.352138214E0,-1.898052979E-1,9.760153656E0,9.855196761E0
5.609850292E0,1.324445801E0,-1.865121460E-1,9.730365601E0,9.821861238E0
5.619882292E0,1.298250275E0,-2.076182556E-1,9.739047546E0,9.827390611E0
5.629913292E0,1.295256500E0,-2.424957275E-1,9.761051788E0,9.849600276E0
5.639944292E0,1.310225372E0,-2.636018372E-1,9.777367859E0,9.868287526E0
5.649976292E0,1.305135956E0,-2.568658447E-1,9.753118286E0,9.843407755E0
5.660007292E0,1.316961365E0,-2.472857666E-1,9.768386536E0,9.859863741E0
5.670038292E0,1.352138214E0,-2.794688416E-1,9.834099884E0,9.930553918E0
5.680070292E0,1.394649811E0,-2.853067017E-1,9.833800507E0,9.936301143E0
5.690101292E0,1.406624908E0,-2.574645996E-1,9.808652802E0,9.912343388E0
5.700132292E0,1.390608215E0,-2.633024597E-1,9.757908325E0,9.860014923E0
5.710164292E0,1.357077942E0,-2.647993469E-1,9.748178558E0,9.845748546E0
5.720195292E0,1.357976074E0,-2.839595032E-1,9.780960388E0,9.878862188E0
5.730226292E0,1.378184052E0,-3.103047180E-1,9.791288910E0,9.892675008E0
5.740258292E0,1.403930511E0,-3.070115662E-1,9.828411713E0,9.932922721E0
5.750289292E0,1.406774597E0,-2.760260010E-1,9.840835876E0,9.944709944E0
5.760320292E0,1.376238098E0,-2.164498901E-1,9.783654785E0,9.882347030E0
5.770352292E0,1.343156891E0,-1.586700439E-1,9.742041321E0,9.835477401E0
5.780383292E0,1.344803467E0,-1.508862305E-1,9.725276184E0,9.818974482E0
5.790415292E0,1.363514557E0,-1.329235840E-1,9.751322021E0,9.847086970E0
5.800446292E0,1.363065491E0,-1.204994202E-1,9.773475952E0,9.868804377E0
5.810477292E0,1.342707825E0,-1.285826111E-1,9.766739960E0,9.859442542E0
5.820509292E0,1.331930237E0,-1.401086426E-1,9.769284668E0,9.860658777E0
5.830540292E0,1.310973816E0,-1.625619507E-1,9.774523773E0,9.863386524E0
5.840571292E0,1.297202454E0,-2.189945984E-1,9.803563385E0,9.891438110E0
5.850603292E0,1.328038330E0,-2.436932373E-1,9.796677704E0,9.889285426E0
5.860634292E0,1.346300354E0,-2.763253784E-1,9.789492645E0,9.885496781E0
5.870665292E0,1.385818176E0,-2.797682190E-1,9.794132996E0,9.895645679E0
5.880697292E0,1.387913818E0,-2.918930054E-1,9.747729492E0,9.850367331E0
5.890728292E0,1.380429382E0,-2.802172852E-1,9.748777313E0,9.850013508E0
5.900759292E0,1.384171600E0,-3.025209045E-1,9.748028870E0,9.850457693E0
5.910791292E0,1.369801483E0,-3.067121887E-1,9.737999725E0,9.838651692E0
5.920822292E0,1.376537476E0,-2.821632385E-1,9.750274200E0,9.851005964E0
5.930853292E0,1.370549927E0,-2.776725769E-1,9.757608948E0,9.857303969E0
5.940885292E0,1.364113312E0,-2.511776733E-1,9.780211945E0,9.878078813E0
5.950916292E0,1.360071716E0,-2.218386841E-1,9.811347198E0,9.907650646E0
5.960948292E0,1.364263000E0,-2.219883728E-1,9.789792023E0,9.886886275E0
5.970979292E0,1.367256775E0,-2.014810181E-1,9.759854279E0,9.857217722E0
5.981010292E0,1.327589264E0,-1.716929626E-1,9.812993774E0,9.903878965E0
5.991042292E0,1.301393738E0,-1.570234680E-1,9.776619415E0,9.864105090E0
6.001073292E0,1.295256500E0,-1.475930786E-1,9.733059998E0,9.819976071E0
6.011104292E0,1.309027863E0,-1.779798889E-1,9.727521515E0,9.816817489E0
6.021136292E0,1.323847046E0,-2.070195007E-1,9.762698364E0,9.854222822E0
6.031167292E0,1.351988525E0,-2.442919922E-1,9.806706848E0,9.902477001E0
6.041198292E0,1.369651794E0,-2.597099304E-1,9.833351440E0,9.931676386E0
6.051230292E0,1.379680939E0,-2.815644836E-1,9.853559418E0,9.953664212E0
6.061261292E0,1.394200745E0,-2.977308655E-1,9.836494904E0,9.939269157E0
6.071292292E0,1.403331757E0,-2.978805542E-1,9.795330505E0,9.899826895E0
6.081324292E0,1.403631134E0,-2.800675964E-1,9.776320038E0,9.880539039E0
6.091355292E0,1.397793274E0,-2.692900085E-1,9.736802216E0,9.840307949E0
6.101386292E0,1.379680939E0,-2.659968567E-1,9.740694122E0,9.841513898E0
6.111418292E0,1.359323273E0,-2.538720703E-1,9.734856262E0,9.832580395E0
6.121449292E0,1.359472961E0,-2.460882568E-1,9.753866730E0,9.851225423E0
6.131481292E0,1.366059265E0,-2.577639771E-1,9.781708832E0,9.879999385E0
6.141512292E0,1.388512573E0,-2.381547546E-1,9.789642334E0,9.890489466E0
6.151543292E0,1.380579071E0,-2.330653381E-1,9.786648560E0,9.886293949E0
6.161575292E0,1.355581055E0,-2.469863892E-1,9.767638092E0,9.864347732E0
6.171606292E0,1.335223389E0,-2.594105530E-1,9.771230621E0,9.865447947E0
6.181637292E0,1.318907318E0,-2.721340942E-1,9.760902100E0,9.853364059E0
6.191669292E0,1.306483154E0,-2.773731995E-1,9.768087158E0,9.858973621E0
6.201700292E0,1.323547668E0,-2.823129272E-1,9.768236847E0,9.861537918E0
6.211731292E0,1.328188019E0,-2.811154175E-1,9.782756653E0,9.876509354E0
6.221763292E0,1.326541443E0,-2.685415649E-1,9.782157898E0,9.875345053E0
6.231794292E0,1.343306580E0,-2.642005920E-1,9.775421906E0,9.870823063E0
6.241825292E0,1.344504089E0,-2.586621094E-1,9.779912567E0,9.875286687E0
6.251857292E0,1.334175568E0,-2.668949890E-1,9.773925018E0,9.868174484E0
6.261888292E0,1.320703583E0,-2.697390747E-1,9.771679688E0,9.864215176E0
6.271919292E0,1.313518524E0,-2.586621094E-1,9.784103851E0,9.875268360E0
6.281951292E0,1.320853271E0,-2.628533936E-1,9.789043579E0,9.881250906E0
6.291982292E0,1.319206696E0,-2.520758057E-1,9.783205719E0,9.874966464E0
6.302013292E0,1.333576813E0,-2.432441711E-1,9.781259766E0,9.874747462E0
6.312044917E0,1.359772339E0,-2.576142883E-1,9.777367859E0,9.874830033E0
6.322075917E0,1.370549927E0,-2.531236267E-1,9.773925018E0,9.872795396E0
6.332107917E0,1.385069733E0,-2.594105530E-1,9.773176575E0,9.874243888E0
6.342138917E0,1.387764130E0,-2.688409424E-1,9.781708832E0,9.883318896E0
6.352169917E0,1.390159149E0,-2.785707092E-1,9.787546692E0,9.889702440E0
6.362201917E0,1.399589539E0,-2.845582581E-1,9.768985291E0,9.872836365E0
6.372232917E0,1.379830627E0,-2.924917603E-1,9.777218170E0,9.878435055E0
6.382263917E0,1.361718292E0,-2.872526550E-1,9.744885406E0,9.843758550E0
6.392295917E0,1.335822144E0,-2.809657288E-1,9.726024628E0,9.821350090E0
6.402326917E0,1.324445801E0,-2.769241333E-1,9.738299103E0,9.831851965E0
6.412357917E0,1.344653778E0,-2.625540161E-1,9.786648560E0,9.882080673E0
6.422389917E0,1.378184052E0,-2.448907471E-1,9.793833618E0,9.893358363E0
6.432420917E0,1.367556152E0,-2.369572449E-1,9.779463501E0,9.877462474E0
6.442451917E0,1.346899109E0,-2.157014465E-1,9.754764862E0,9.849675215E0
6.452483917E0,1.311871948E0,-2.222877502E-1,9.742789764E0,9.833227967E0
6.462514917E0,1.292711792E0,-2.336640930E-1,9.759854279E0,9.847865668E0
6.472545917E0,1.301543427E0,-2.571652222E-1,9.779014435E0,9.868600334E0
6.482577917E0,1.281335449E0,-2.770738220E-1,9.766889648E0,9.854477350E0
6.492608917E0,1.277892609E0,-2.621049500E-1,9.754764862E0,9.841602819E0
6.502640917E0,1.307081909E0,-2.829116821E-1,9.792636108E0,9.883532976E0
6.512671917E0,1.349743195E0,-2.992277527E-1,9.831854553E0,9.928580356E0
6.522702917E0,1.387913818E0,-3.002755737E-1,9.822274475E0,9.924391470E0
6.532734917E0,1.383123779E0,-2.969824219E-1,9.806108093E0,9.907622615E0
6.542765917E0,1.353635101E0,-2.959346008E-1,9.777218170E0,9.874912679E0
6.552796917E0,1.343007202E0,-2.890489197E-1,9.773475952E0,9.869551652E0
6.562828917E0,1.344055023E0,-3.010240173E-1,9.788594513E0,9.885023111E0
6.572859917E0,1.396895142E0,-3.192860413E-1,9.790989532E0,9.895288558E0
6.582890917E0,1.402433624E0,-3.152444458E-1,9.794731750E0,9.899644902E0
6.592922917E0,1.390608215E0,-2.697390747E-1,9.781409454E0,9.883446832E0
6.602953917E0,1.359622650E0,-2.160008240E-1,9.754166107E0,9.850836845E0
6.612984917E0,1.347797241E0,-1.754351807E-1,9.706265717E0,9.800965721E0
6.623016917E0,1.359772339E0,-1.534309387E-1,9.730215912E0,9.825966800E0
6.633047917E0,1.356778564E0,-1.380130005E-1,9.753417664E0,9.848301975E0
6.643078917E0,1.361418915E0,-1.508862305E-1,9.789642334E0,9.885005065E0
6.653110917E0,1.338666229E0,-1.613644409E-1,9.808802490E0,9.901043988E0
6.663141917E0,1.310075684E0,-1.796264648E-1,9.799821167E0,9.888632811E0
6.673173917E0,1.296903076E0,-2.186952209E-1,9.804910583E0,9.892727467E0
6.683204917E0,1.307680664E0,-2.483335876E-1,9.816586304E0,9.906415343E0
6.693235917E0,1.331032104E0,-2.809657288E-1,9.810449066E0,9.904317194E0
6.703267917E0,1.355431366E0,-3.008743286E-1,9.793384552E0,9.891314399E0
6.713298917E0,1.364861755E0,-3.248245239E-1,9.780211945E0,9.880329158E0
6.723329917E0,1.384620667E0,-3.308120728E-1,9.758357391E0,9.861650470E0
6.733361917E0,1.378184052E0,-3.245251465E-1,9.747130737E0,9.849429702E0
6.743392917E0,1.376836853E0,-3.215313721E-1,9.768087158E0,9.869882921E0
6.753423917E0,1.386117554E0,-3.083587646E-1,9.789492645E0,9.891944867E0
6.763455917E0,1.377585297E0,-2.933898926E-1,9.789043579E0,9.889853036E0
6.773486917E0,1.359173584E0,-2.794688416E-1,9.802665253E0,9.900388968E0
6.783517917E0,1.369502106E0,-2.486329651E-1,9.810000000E0,9.908251832E0
6.793549917E0,1.367256775E0,-2.251318359E-1,9.801467743E0,9.898931526E0
6.803580917E0,1.350791016E0,-2.062710571E-1,9.755812683E0,9.851043865E0
6.813611917E0,1.311572571E0,-1.826202393E-1,9.772577820E0,9.861888765E0
6.823643917E0,1.274150391E0,-1.495390320E-1,9.754764862E0,9.838763065E0
6.833674917E0,1.276695099E0,-1.463955688E-1,9.733209686E0,9.817675531E0
6.843705917E0,1.292412415E0,-1.692979431E-1,9.741592255E0,9.828408381E0
6.853737917E0,1.295705566E0,-1.922003174E-1,9.749974823E0,9.837570987E0
6.863768917E0,1.305285645E0,-2.180964661E-1,9.811945953E0,9.900788861E0
6.873800917E0,1.338516541E0,-2.573149109E-1,9.877060547E0,9.970665100E0
6.883831917E0,1.383273468E0,-2.764750671E-1,9.919123077E0,1.001892642E1
6.893862917E0,1.404678955E0,-2.890489197E-1,9.905351715E0,1.000862952E1
6.903894917E0,1.383123779E0,-2.897973633E-1,9.839338989E0,9.940302090E0
6.913925917E0,1.376238098E0,-2.689906311E-1,9.780211945E0,9.880229397E0
6.923956917E0,1.369352417E0,-2.523751831E-1,9.740694122E0,9.839712458E0
6.933988917E0,1.366807709E0,-2.565664673E-1,9.744136963E0,9.842875333E0
6.944019917E0,1.368154907E0,-2.532733154E-1,9.752220154E0,9.850979299E0
6.954050917E0,1.346899109E0,-2.423460388E-1,9.755363617E0,9.850887681E0
6.964082917E0,1.351090393E0,-2.362088013E-1,9.766440582E0,9.862281759E0
6.974113917E0,1.379830627E0,-2.249821472E-1,9.782606964E0,9.882001242E0
6.984144917E0,1.362915802E0,-2.215393066E-1,9.780810699E0,9.877797178E0
6.994176917E0,1.363813934E0,-2.436932373E-1,9.779912567E0,9.877553577E0
7.004207917E0,1.350491638E0,-2.505789185E-1,9.779014435E0,9.875005862E0
7.014239917E0,1.338815918E0,-2.671943665E-1,9.780062256E0,9.874889297E0
7.024270917E0,1.334774323E0,-2.760260010E-1,9.771979065E0,9.866579331E0
7.034301917E0,1.334924011E0,-2.869532776E-1,9.760752411E0,9.855792811E0
7.044333917E0,1.327738953E0,-2.781216431E-1,9.769284668E0,9.863020090E0
7.054364917E0,1.341510315E0,-2.725831604E-1,9.775272217E0,9.870658459E0
7.064395917E0,1.340911560E0,-2.697390747E-1,9.766141205E0,9.861456130E0
7.074427917E0,1.338965607E0,-2.701881409E-1,9.776469727E0,9.871433069E0
7.084458917E0,1.346599731E0,-2.746788025E-1,9.781110077E0,9.877190573E0
7.094489917E0,1.331481171E0,-2.679428101E-1,9.777667236E0,9.871545575E0
7.104521917E0,1.341809692E0,-2.706372070E-1,9.784253540E0,9.879540226E0
7.114552917E0,1.345402222E0,-2.664459229E-1,9.790091400E0,9.885696242E0
7.124583917E0,1.343605957E0,-2.802172852E-1,9.780960388E0,9.876790208E0
7.134615917E0,1.361718292E0,-2.604583740E-1,9.789642334E0,9.887325842E0
7.144646917E0,1.355880432E0,-2.791694641E-1,9.772877197E0,9.870434441E0
7.154677917E0,1.364712067E0,-2.859054565E-1,9.781409454E0,9.880291082E0
7.164709917E0,1.385069733E0,-2.854563904E-1,9.786648560E0,9.888295786E0
7.174740917E0,1.402882690E0,-2.808160400E-1,9.790989532E0,9.894969101E0
7.184772917E0,1.394649811E0,-2.841091919E-1,9.791288910E0,9.894195503E0
7.194803917E0,1.402882690E0,-3.020718384E-1,9.780810699E0,9.885524021E0
7.204834917E0,1.385967865E0,-3.077600098E-1,9.767488403E0,9.870129323E0
7.214866917E0,1.391506348E0,-3.055146790E-1,9.753717041E0,9.857211840E0
7.224897917E0,1.372196503E0,-3.050656128E-1,9.739197235E0,9.840119463E0
7.234928917E0,1.370849304E0,-3.092568970E-1,9.737700348E0,9.838580980E0
7.244960917E0,1.384021912E0,-3.062631226E-1,9.775421906E0,9.877661018E0
7.254991917E0,1.404229889E0,-2.923420715E-1,9.793983307E0,9.898456167E0
7.265022917E0,1.424437866E0,-2.824626160E-1,9.786648560E0,9.893801008E0
7.275054917E0,1.414857788E0,-2.643502808E-1,9.771080933E0,9.876523995E0
7.285085917E0,1.375938721E0,-2.392025757E-1,9.759854279E0,9.859268775E0
7.295116917E0,1.355131989E0,-2.405497742E-1,9.780511322E0,9.876874436E0
7.305148917E0,1.329535217E0,-2.508782959E-1,9.793983307E0,9.886997159E0
7.315180333E0,1.323397980E0,-2.695893860E-1,9.781708832E0,9.874506991E0
7.325211333E0,1.334624634E0,-2.619552612E-1,9.764794006E0,9.859059055E0
7.335243333E0,1.325792999E0,-2.383044434E-1,9.745633850E0,9.838287210E0
7.345274333E0,1.350042572E0,-2.252815247E-1,9.750423889E0,9.846021162E0
7.355305333E0,1.394200745E0,-2.850073242E-1,9.808503113E0,9.911193581E0
7.365337333E0,1.445394287E0,-3.028202820E-1,9.827663269E0,9.937999301E0
7.375368333E0,1.484762421E0,-3.219804382E-1,9.818083191E0,9.934935752E0
7.385400333E0,1.482666779E0,-3.601510620E-1,9.816885681E0,9.934749823E0
7.395431333E0,1.449286194E0,-3.359014893E-1,9.782756653E0,9.895230569E0
7.405462333E0,1.435065765E0,-3.353027344E-1,9.732161865E0,9.843110090E0
7.415494333E0,1.417552185E0,-3.411405945E-1,9.721533966E0,9.830262141E0
7.425525333E0,1.403182068E0,-3.155438232E-1,9.741592255E0,9.847187795E0
7.435556333E0,1.378633118E0,-2.772235107E-1,9.714648285E0,9.815899014E0
7.445588333E0,1.384920044E0,-2.326162720E-1,9.699380035E0,9.800514626E0
7.455619333E0,1.406475220E0,-1.933978271E-1,9.689949646E0,9.793400809E0
7.465650333E0,1.425934753E0,-1.827699280E-1,9.711504822E0,9.817332666E0
7.475682333E0,1.439556427E0,-1.977388000E-1,9.763297119E0,9.870835526E0
7.485713333E0,1.445993042E0,-2.082170105E-1,9.798174591E0,9.906486538E0
7.495744333E0,1.413211212E0,-2.377056885E-1,9.819430389E0,9.923451169E0
7.505776333E0,1.403780823E0,-2.555186462E-1,9.840386810E0,9.943294371E0
7.515807333E0,1.397793274E0,-2.695893860E-1,9.833351440E0,9.935859551E0
7.525838333E0,1.391506348E0,-2.824626160E-1,9.815388794E0,9.917556767E0
7.535870333E0,1.421294403E0,-3.071612549E-1,9.789193268E0,9.896601975E0
7.545901333E0,1.429976349E0,-3.110531616E-1,9.756710815E0,9.865849804E0
7.555933333E0,1.442699890E0,-3.056643677E-1,9.740095367E0,9.851105088E0
7.565964333E0,1.436712341E0,-3.128494263E-1,9.710007935E0,9.820706248E0
7.575995333E0,1.437760162E0,-3.079096985E-1,9.715097351E0,9.825735556E0
7.586027333E0,1.443897400E0,-3.323089600E-1,9.711205444E0,9.823582856E0
7.596058333E0,1.460512848E0,-3.209326172E-1,9.712253265E0,9.826696241E0
7.606089333E0,1.466799774E0,-3.094065857E-1,9.720486145E0,9.835399581E0
7.616121333E0,1.457968140E0,-3.095562744E-1,9.744735718E0,9.858061188E0
7.626152333E0,1.452429657E0,-2.929408264E-1,9.765243073E0,9.877010606E0
7.636183333E0,1.457219696E0,-2.676434326E-1,9.745484161E0,9.857463355E0
7.646215333E0,1.456920319E0,-2.538720703E-1,9.804611206E0,9.915516565E0
7.656246333E0,1.434317322E0,-2.392025757E-1,9.791438599E0,9.898825884E0
7.666277333E0,1.426832886E0,-2.227368164E-1,9.768236847E0,9.874407064E0
7.676309333E0,1.414857788E0,-2.639012146E-1,9.805209961E0,9.910277937E0
7.686340333E0,1.427880707E0,-2.742297363E-1,9.811496887E0,9.918644889E0
7.696371333E0,1.425186310E0,-2.633024597E-1,9.809850311E0,9.916332353E0
7.706403333E0,1.395547943E0,-2.405497742E-1,9.783654785E0,9.885611727E0
7.716434333E0,1.400487671E0,-2.752775574E-1,9.772278442E0,9.875959164E0
7.726466333E0,1.440304871E0,-3.086581421E-1,9.800868988E0,9.910942482E0
7.736497333E0,1.471889191E0,-3.038681030E-1,9.819430389E0,9.933781092E0
7.746528333E0,1.500928802E0,-2.998265076E-1,9.801168365E0,9.919958898E0
7.756560333E0,1.511706390E0,-2.802172852E-1,9.741143188E0,9.861726449E0
7.766591333E0,1.509910126E0,-2.601589966E-1,9.714049530E0,9.834137967E0
7.776622333E0,1.476828918E0,-2.709365845E-1,9.728269958E0,9.843458065E0
7.786654333E0,1.468446350E0,-2.773731995E-1,9.721983032E0,9.836169206E0
7.796685333E0,1.474882965E0,-2.757266235E-1,9.736802216E0,9.851731945E0
7.806716333E0,1.473984833E0,-2.594105530E-1,9.719887390E0,9.834436232E0
7.816748333E0,1.469793549E0,-2.692900085E-1,9.713001709E0,9.827268816E0
7.826779333E0,1.453477478E0,-2.624043274E-1,9.712852020E0,9.824507478E0
7.836810333E0,1.423390045E0,-2.688409424E-1,9.728719025E0,9.835969120E0
7.846842333E0,1.420995026E0,-2.743794250E-1,9.743388519E0,9.850285822E0
7.856873333E0,1.422342224E0,-2.857557678E-1,9.766739960E0,9.873901114E0
7.866904333E0,1.435514832E0,-3.112028503E-1,9.762997742E0,9.872875718E0
7.876936333E0,1.432071991E0,-3.246748352E-1,9.763746185E0,9.873549691E0
7.886967333E0,1.419049072E0,-3.233276367E-1,9.749525757E0,9.857560221E0
7.896998333E0,1.431772614E0,-3.408412170E-1,9.750274200E0,9.860729818E0
7.907030333E0,1.459764404E0,-3.511697388E-1,9.767638092E0,9.882357320E0
7.917061333E0,1.455573120E0,-3.424877930E-1,9.781858521E0,9.895491252E0
7.927093333E0,1.462758179E0,-3.344046021E-1,9.776170349E0,9.890651881E0
7.937124333E0,1.462159424E0,-3.248245239E-1,9.778864746E0,9.892907402E0
7.947155333E0,1.451381836E0,-3.041674805E-1,9.786947937E0,9.898655313E0
7.957187333E0,1.442550201E0,-2.848576355E-1,9.777367859E0,9.887315976E0
7.967218333E0,1.432820435E0,-2.788700867E-1,9.795480194E0,9.903644539E0
7.977249333E0,1.432521057E0,-2.743794250E-1,9.786049805E0,9.894148343E0
7.987281333E0,1.438807983E0,-2.661465454E-1,9.779762878E0,9.888617919E0
7.997312333E0,1.444346466E0,-2.562670898E-1,9.758207703E0,9.867848150E0
8.007343333E0,1.422042847E0,-2.643502808E-1,9.737999725E0,9.844832430E0
8.017375333E0,1.439706116E0,-2.763253784E-1,9.760453033E0,9.869931754E0
8.027406333E0,1.463955688E0,-2.869532776E-1,9.767488403E0,9.880755950E0
8.037437333E0,1.492396545E0,-2.856060791E-1,9.785750427E0,9.903016192E0
8.047469333E0,1.486858063E0,-2.908451843E-1,9.763446808E0,9.880295106E0
8.057500333E0,1.499282227E0,-2.953358459E-1,9.722432098E0,9.841786239E0
8.067531333E0,1.470991058E0,-2.950364685E-1,9.712103577E0,9.827299583E0
8.077563333E0,1.457519073E0,-3.299139404E-1,9.731862488E0,9.845930760E0
8.087594333E0,1.448088684E0,-3.558100891E-1,9.766290894E0,9.879473644E0
8.097626333E0,1.462309113E0,-3.589535522E-1,9.765841827E0,9.881237888E0
8.107657333E0,1.434616699E0,-3.233276367E-1,9.727072449E0,9.837611715E0
8.117688333E0,1.422491913E0,-2.998265076E-1,9.693841553E0,9.802241745E0
8.127720333E0,1.442699890E0,-3.170407104E-1,9.733209686E0,9.844656854E0
8.137751333E0,1.458117828E0,-3.674858093E-1,9.762698364E0,9.877825306E0
8.147782333E0,1.499431915E0,-3.785627747E-1,9.793234863E0,9.914587986E0
8.157814333E0,1.530716858E0,-3.833528137E-1,9.803862762E0,9.930044237E0
8.167845333E0,1.480870514E0,-3.646417236E-1,9.781559143E0,9.899739407E0
8.177876333E0,1.434017944E0,-3.231779480E-1,9.721384277E0,9.831895225E0
8.187908333E0,1.417103119E0,-3.287164307E-1,9.681417389E0,9.790101041E0
8.197939333E0,1.419947205E0,-3.415896606E-1,9.684560852E0,9.794062102E0
8.207970333E0,1.426084442E0,-3.002755737E-1,9.707014160E0,9.815803898E0
8.218002333E0,1.424886932E0,-2.710862732E-1,9.718689880E0,9.826328080E0
8.228033333E0,1.441951447E0,-2.502795410E-1,9.724228363E0,9.833741967E0
8.238064333E0,1.455273743E0,-2.336640930E-1,9.745633850E0,9.856459796E0
8.248096333E0,1.499731293E0,-2.592608643E-1,9.778565369E0,9.896299855E0
8.258127333E0,1.476230164E0,-2.906954956E-1,9.810898132E0,9.925597288E0
8.268159333E0,1.445244598E0,-3.132984924E-1,9.844877472E0,9.955325225E0
8.278190333E0,1.433568878E0,-3.254232788E-1,9.839189301E0,9.948400179E0
8.288221333E0,1.418600006E0,-3.276686096E-1,9.823022919E0,9.930335944E0
8.298253333E0,1.415157166E0,-3.397933960E-1,9.790241089E0,9.897825515E0
8.308284333E0,1.426084442E0,-3.203338623E-1,9.758956146E0,9.867803995E0
8.318315417E0,1.441801758E0,-3.206332397E-1,9.719588013E0,9.831174351E0
8.328347417E0,1.462159424E0,-3.182382202E-1,9.695637817E0,9.810432123E0
8.338378417E0,1.473835144E0,-3.359014893E-1,9.707762604E0,9.824748069E0
8.348409417E0,1.486109619E0,-3.300636292E-1,9.723779297E0,9.842222697E0
8.358441417E0,1.486858063E0,-3.486250305E-1,9.741891632E0,9.860869073E0
8.368472417E0,1.483265533E0,-3.555107117E-1,9.761351166E0,9.879799648E0
8.378503417E0,1.480122070E0,-3.573069763E-1,9.767937469E0,9.885900668E0
8.388535417E0,1.464404755E0,-3.553610229E-1,9.793833618E0,9.909083695E0
8.398566417E0,1.457369385E0,-3.288661194E-1,9.804461517E0,9.917638030E0
8.408598417E0,1.454225922E0,-3.224295044E-1,9.783355408E0,9.896099072E0
8.418629417E0,1.431622925E0,-2.812651062E-1,9.739945679E0,9.848613917E0
8.428660417E0,1.428928528E0,-2.573149109E-1,9.803862762E0,9.910790724E0
8.438692417E0,1.436562653E0,-2.502795410E-1,9.748777313E0,9.857231417E0
8.448723417E0,1.475781097E0,-2.580633545E-1,9.737850037E0,9.852423554E0
8.458754417E0,1.474134521E0,-2.900967407E-1,9.700577545E0,9.816233158E0
8.468786417E0,1.437760162E0,-2.851570129E-1,9.687255249E0,9.797519230E0
8.478817417E0,1.422192535E0,-2.969824219E-1,9.709109802E0,9.817211586E0
8.488848417E0,1.428180084E0,-3.418890381E-1,9.760902100E0,9.870754595E0
8.498880417E0,1.494641876E0,-3.954776001E-1,9.817334747E0,9.938330766E0
8.508911417E0,1.547931061E0,-3.921844482E-1,9.844727783E0,9.973392820E0
8.518942417E0,1.544787598E0,-3.550616455E-1,9.814340973E0,9.941515288E0
8.528974417E0,1.504820709E0,-3.207829285E-1,9.739945679E0,9.860726590E0
8.539005417E0,1.444945221E0,-2.969824219E-1,9.708061981E0,9.819497578E0
8.549036417E0,1.417851562E0,-2.848576355E-1,9.708061981E0,9.815187943E0
8.559068417E0,1.402733002E0,-2.769241333E-1,9.747729492E0,9.852034161E0
8.569099417E0,1.434916077E0,-2.811154175E-1,9.780211945E0,9.888910744E0
8.579130417E0,1.458267517E0,-2.543211365E-1,9.754764862E0,9.866441147E0
8.589162417E0,1.433119812E0,-2.483335876E-1,9.716145172E0,9.824407309E0
8.599193417E0,1.421144714E0,-2.788700867E-1,9.728868713E0,9.836071740E0
8.609225417E0,1.421743469E0,-3.104544067E-1,9.759554901E0,9.867453993E0
8.619256417E0,1.444346466E0,-3.547622681E-1,9.758806458E0,9.871489070E0
8.629287417E0,1.438807983E0,-3.830534363E-1,9.757908325E0,9.870849671E0
8.639319417E0,1.439706116E0,-3.899391174E-1,9.776020660E0,9.889154977E0
8.649350417E0,1.428928528E0,-3.760180664E-1,9.766290894E0,9.877432062E0
8.659381417E0,1.422491913E0,-3.489244080E-1,9.773326263E0,9.882466177E0
8.669413417E0,1.449136505E0,-3.484753418E-1,9.762548676E0,9.875666475E0
8.679444417E0,1.439257050E0,-3.495231628E-1,9.758656769E0,9.870410793E0
8.689475417E0,1.440604248E0,-3.221301270E-1,9.766141205E0,9.877075602E0
8.699507417E0,1.419797516E0,-3.231779480E-1,9.764195251E0,9.872171893E0
8.709538417E0,1.423390045E0,-2.981799316E-1,9.764494629E0,9.872198633E0
8.719569417E0,1.415606232E0,-2.862048340E-1,9.776020660E0,9.882127006E0
8.729601417E0,1.413510590E0,-2.770738220E-1,9.767787781E0,9.873421910E0
8.739632417E0,1.412911835E0,-2.737806702E-1,9.767638092E0,9.873096252E0
8.749664417E0,1.434766388E0,-2.615061951E-1,9.762997742E0,9.871325391E0
8.759695417E0,1.441951447E0,-2.827619934E-1,9.752968597E0,9.863040849E0
8.769726417E0,1.438209229E0,-2.785707092E-1,9.770332489E0,9.879546770E0
8.779758417E0,1.445993042E0,-2.824626160E-1,9.775272217E0,9.885677919E0
8.789789417E0,1.449286194E0,-2.942880249E-1,9.741442566E0,9.853057352E0
8.799820417E0,1.451830902E0,-3.026705933E-1,9.714648285E0,9.827197655E0
8.809852417E0,1.439556427E0,-2.995271301E-1,9.739496613E0,9.849864642E0
8.819883417E0,1.445094910E0,-3.107537842E-1,9.751621399E0,9.863011057E0
8.829914417E0,1.449286194E0,-3.297642517E-1,9.779164124E0,9.891472382E0
8.839946417E0,1.457219696E0,-3.146456909E-1,9.763596497E0,9.876755930E0
8.849977417E0,1.444645844E0,-3.002755737E-1,9.727671204E0,9.838940699E0
8.860008417E0,1.415456543E0,-3.085084534E-1,9.723779297E0,9.831102609E0
8.870040417E0,1.386117554E0,-3.408412170E-1,9.751771088E0,9.855685362E0
8.880071417E0,1.395847321E0,-3.647914124E-1,9.770332489E0,9.876277612E0
8.890102417E0,1.390308838E0,-3.308120728E-1,9.757309570E0,9.861413963E0
8.900134417E0,1.370849304E0,-2.966830444E-1,9.718240814E0,9.818933403E0
8.910165417E0,1.388662262E0,-3.068618774E-1,9.768835602E0,9.871813213E0
8.920196417E0,1.431473236E0,-3.441343689E-1,9.805209961E0,9.915124128E0
8.930228417E0,1.499132538E0,-3.591032410E-1,9.819879456E0,9.940140141E0
8.940259417E0,1.487606506E0,-3.344046021E-1,9.784103851E0,9.902196106E0
8.950291417E0,1.440304871E0,-3.583547974E-1,9.780062256E0,9.892042964E0
8.960322417E0,1.413510590E0,-3.441343689E-1,9.784103851E0,9.891669668E0
8.970353417E0,1.428778839E0,-3.623963928E-1,9.770781555E0,9.881341625E0
8.980385417E0,1.434766388E0,-3.697311401E-1,9.770332489E0,9.882036867E0
8.990416417E0,1.431922302E0,-3.248245239E-1,9.755064240E0,9.864947581E0
9.000447417E0,1.410217438E0,-2.727328491E-1,9.729617157E0,9.835067181E0
9.010479417E0,1.405726776E0,-2.239343262E-1,9.700727234E0,9.804607244E0
9.020510417E0,1.413510590E0,-1.969903564E-1,9.686357117E0,9.790931088E0
9.030541417E0,1.427132263E0,-1.923500061E-1,9.719588013E0,9.825685531E0
9.040573417E0,1.465302887E0,-2.034269714E-1,9.787097626E0,9.898271315E0
9.050604417E0,1.469045105E0,-2.154020691E-1,9.828711090E0,9.940224005E0
9.060635417E0,1.436113586E0,-2.353106689E-1,9.825717316E0,9.932900589E0
9.070667417E0,1.421893158E0,-2.649490356E-1,9.831854553E0,9.937672871E0
9.080698417E0,1.411714325E0,-3.135978699E-1,9.810748444E0,9.916756828E0
9.090730417E0,1.402134247E0,-3.231779480E-1,9.792187042E0,9.897340628E0
9.100761417E0,1.410666504E0,-3.483256531E-1,9.759704590E0,9.867276444E0
9.110792417E0,1.438508606E0,-3.686833191E-1,9.730664978E0,9.843326435E0
9.120823417E0,1.452429657E0,-3.577560425E-1,9.717791748E0,9.832243780E0
9.130855417E0,1.450483704E0,-3.444337463E-1,9.712852020E0,9.826598188E0
9.140886417E0,1.473236389E0,-3.492237854E-1,9.730066223E0,9.847160576E0
9.150918417E0,1.459315338E0,-3.484753418E-1,9.768386536E0,9.882935385E0
9.160949417E0,1.451381836E0,-3.363505554E-1,9.768985291E0,9.881938805E0
9.170980417E0,1.446891174E0,-3.338058472E-1,9.777966614E0,9.890073383E0
9.181012417E0,1.437311096E0,-3.192860413E-1,9.781110077E0,9.891305328E0
9.191043417E0,1.436562653E0,-3.128494263E-1,9.795330505E0,9.905053595E0
9.201074417E0,1.413510590E0,-2.799179077E-1,9.793534241E0,9.898973641E0
9.211106417E0,1.388961639E0,-2.600093079E-1,9.741891632E0,9.843844363E0
9.221137417E0,1.369651794E0,-2.463876343E-1,9.733509064E0,9.832489593E0
9.231168417E0,1.337468719E0,-2.386038208E-1,9.779912567E0,9.873826218E0
9.241200417E0,1.359173584E0,-2.083666992E-1,9.760752411E0,9.857132298E0
9.251231417E0,1.377884674E0,-1.983375549E-1,9.731712799E0,9.830775044E0
9.261262417E0,1.403331757E0,-2.300715637E-1,9.732910309E0,9.836250100E0
9.271294417E0,1.420695648E0,-2.553689575E-1,9.770033112E0,9.876089126E0
9.281325417E0,1.443897400E0,-2.880010986E-1,9.811047821E0,9.920909418E0
9.291357417E0,1.438508606E0,-3.115022278E-1,9.833201752E0,9.942745966E0
9.301388417E0,1.420545959E0,-3.234773254E-1,9.826914825E0,9.934326519E0
9.311419667E0,1.433269501E0,-3.367996216E-1,9.799970856E0,9.909950768E0
9.321451667E0,1.454824677E0,-3.180885315E-1,9.771230621E0,9.884060047E0
9.331482667E0,1.451232147E0,-2.891986084E-1,9.748028870E0,9.859704733E0
9.341513667E0,1.443897400E0,-3.043171692E-1,9.738897858E0,9.850054828E0
9.351545667E0,1.426084442E0,-3.004252625E-1,9.751920776E0,9.860219622E0
9.361576667E0,1.423240356E0,-2.877017212E-1,9.757908325E0,9.865351503E0
9.371607667E0,1.437460785E0,-2.874023438E-1,9.760453033E0,9.869920822E0
9.381639667E0,1.426084442E0,-2.894979858E-1,9.785301361E0,9.892909008E0
9.391670667E0,1.429377594E0,-2.758763123E-1,9.786798248E0,9.894475630E0
9.401701667E0,1.447489929E0,-2.685415649E-1,9.777367859E0,9.887581298E0
9.411733667E0,1.445693665E0,-2.740800476E-1,9.757159882E0,9.867487978E0
9.421764667E0,1.404978333E0,-2.701881409E-1,9.719737701E0,9.824472847E0
9.431795667E0,1.383423157E0,-2.881507874E-1,9.720785522E0,9.822960943E0
9.441827667E0,1.388961639E0,-2.999761963E-1,9.738299103E0,9.841426196E0
9.451858667E0,1.391506348E0,-3.023712158E-1,9.774074707E0,9.877259470E0
9.461890667E0,1.423240356E0,-3.028202820E-1,9.779613190E0,9.887271989E0
9.471921667E0,1.410367126E0,-2.983296204E-1,9.785900116E0,9.891510354E0
9.481952667E0,1.425934753E0,-2.893482971E-1,9.779164124E0,9.886812596E0
9.491984667E0,1.411714325E0,-2.974314880E-1,9.780211945E0,9.886048174E0
9.502015667E0,1.394200745E0,-2.918930054E-1,9.789792023E0,9.892877493E0
9.512046667E0,1.387913818E0,-2.924917603E-1,9.798623657E0,9.900751576E0
9.522078667E0,1.391656036E0,-2.939886475E-1,9.772727509E0,9.875694345E0
9.532109667E0,1.407073975E0,-2.695893860E-1,9.753417664E0,9.858077486E0
9.542140667E0,1.391955414E0,-2.556683350E-1,9.745783539E0,9.848005024E0
9.552172667E0,1.391955414E0,-2.698887634E-1,9.765841827E0,9.868234210E0
9.562203667E0,1.409768372E0,-2.791694641E-1,9.767488403E0,9.872649703E0
9.572234667E0,1.425335999E0,-2.712359619E-1,9.768236847E0,9.875403929E0
9.582266667E0,1.437909851E0,-2.719844055E-1,9.758956146E0,9.868068976E0
9.592297667E0,1.427132263E0,-2.899470520E-1,9.767937469E0,9.875898855E0
9.602329667E0,1.434167633E0,-3.121009827E-1,9.773326263E0,9.882922142E0
9.612360667E0,1.425635376E0,-3.034190369E-1,9.780211945E0,9.888227597E0
9.622391667E0,1.419797516E0,-3.013233948E-1,9.770781555E0,9.877995392E0
9.632423667E0,1.427431641E0,-2.941383362E-1,9.778415680E0,9.886429672E0
9.642454667E0,1.422641602E0,-2.748284912E-1,9.769733734E0,9.876595419E0
9.652485667E0,1.406325531E0,-2.757266235E-1,9.765692139E0,9.870284678E0
9.662517667E0,1.378034363E0,-2.769241333E-1,9.755962372E0,9.856696581E0
9.672548667E0,1.407822418E0,-2.773731995E-1,9.800419922E0,9.904904366E0
9.682579667E0,1.423240356E0,-2.754272461E-1,9.823322296E0,9.929709674E0
9.692611667E0,1.435514832E0,-2.492317200E-1,9.803563385E0,9.911239798E0
9.702642667E0,1.425036621E0,-2.342628479E-1,9.756411438E0,9.862716289E0
9.712673667E0,1.395098877E0,-2.384541321E-1,9.737251282E0,9.839574370E0
9.722705667E0,1.380279694E0,-2.652484131E-1,9.755662994E0,9.856393317E0
9.732736667E0,1.393152924E0,-2.903961182E-1,9.775571594E0,9.878613514E0
9.742767667E0,1.379531250E0,-2.670446777E-1,9.722581787E0,9.823594858E0
9.752799667E0,1.368154907E0,-2.408491516E-1,9.687255249E0,9.786356341E0
9.762830667E0,1.391057281E0,-2.754272461E-1,9.784552917E0,9.886777853E0
9.772861667E0,1.430575104E0,-2.960842896E-1,9.819580078E0,9.927656518E0
9.782893667E0,1.469494171E0,-2.885998535E-1,9.843081207E0,9.956352276E0
9.792924667E0,1.481618958E0,-3.056643677E-1,9.785301361E0,9.901552816E0
9.802956667E0,1.427581329E0,-2.787203979E-1,9.722132721E0,9.830337642E0
9.812987667E0,1.398541718E0,-2.924917603E-1,9.724078674E0,9.828488003E0
9.823018667E0,1.417552185E0,-3.454815674E-1,9.748927002E0,9.857504218E0
9.833050667E0,1.450483704E0,-3.736230469E-1,9.780960388E0,9.894982732E0
9.843081667E0,1.445843353E0,-3.387455750E-1,9.788893890E0,9.900891635E0
9.853112667E0,1.416354675E0,-2.607577515E-1,9.742191010E0,9.848062796E0
9.863144667E0,1.377585297E0,-1.989363098E-1,9.678423615E0,9.777995734E0
9.873175667E0,1.390308838E0,-1.802252197E-1,9.671388245E0,9.772471047E0
9.883206667E0,1.422342224E0,-1.697470093E-1,9.701924744E0,9.807100243E0
9.893238667E0,1.449435883E0,-1.607656860E-1,9.738299103E0,9.846886787E0
9.903269667E0,1.472487946E0,-1.760339355E-1,9.790091400E0,9.901772484E0
9.913300667E0,1.461860046E0,-2.020797729E-1,9.818681946E0,9.928967025E0
9.923332667E0,1.419498138E0,-2.215393066E-1,9.836345215E0,9.940711333E0
9.933363667E0,1.383722534E0,-2.558180237E-1,9.852062531E0,9.952048383E0
9.943395667E0,1.385668488E0,-2.830613708E-1,9.853409729E0,9.954390197E0
9.953426667E0,1.375789032E0,-3.017724609E-1,9.818083191E0,9.918599681E0
9.963457667E0,1.387464752E0,-3.088078308E-1,9.775122528E0,9.877926966E0
9.973489667E0,1.407822418E0,-3.119512939E-1,9.728419647E0,9.834705202E0
9.983520667E0,1.424437866E0,-3.209326172E-1,9.702224121E0,9.811481737E0
9.993551667E0,1.431772614E0,-3.056643677E-1,9.720186768E0,9.829823718E0
1.000358367E1,1.447789307E0,-3.162922668E-1,9.734706573E0,9.846859740E0
1.001361467E1,1.470841370E0,-3.191363525E-1,9.770332489E0,9.885576326E0
1.002364567E1,1.476978607E0,-3.040177917E-1,9.788893890E0,9.904359455E0
1.003367767E1,1.459914093E0,-2.835104370E-1,9.782157898E0,9.894561156E0
1.004370867E1,1.446442108E0,-2.695893860E-1,9.780661011E0,9.890712968E0
1.005373967E1,1.450184326E0,-2.423460388E-1,9.783205719E0,9.893072340E0
1.006377167E1,1.446591797E0,-2.020797729E-1,9.754315796E0,9.863069538E0
1.007380267E1,1.409169617E0,-1.877096558E-1,9.698631592E0,9.802267527E0
1.008383367E1,1.361269226E0,-1.793270874E-1,9.708211670E0,9.804824626E0
1.009386567E1,1.323547668E0,-1.799258423E-1,9.704619141E0,9.796110677E0
1.010389667E1,1.352886658E0,-1.725910950E-1,9.714049530E0,9.809324557E0
1.011392867E1,1.412911835E0,-2.245330811E-1,9.761650543E0,9.865929063E0
1.012395967E1,1.470691681E0,-2.887495422E-1,9.805060272E0,9.918947387E0
1.013399067E1,1.476080475E0,-3.052153015E-1,9.830806732E0,9.945689064E0
1.014402267E1,1.451232147E0,-3.487747192E-1,9.840835876E0,9.953379793E0
1.015405367E1,1.437311096E0,-3.525169373E-1,9.825867004E0,9.936689276E0
1.016408467E1,1.433119812E0,-3.544628906E-1,9.796528015E0,9.907140732E0
1.017411667E1,1.448388062E0,-3.415896606E-1,9.772428131E0,9.885082855E0
1.018414767E1,1.458716583E0,-2.981799316E-1,9.745783539E0,9.858857040E0
1.019417867E1,1.431473236E0,-2.719844055E-1,9.716294861E0,9.824941576E0
1.020421067E1,1.413360901E0,-2.504292297E-1,9.710307312E0,9.815822529E0
1.021424167E1,1.414408722E0,-2.230361938E-1,9.724827118E0,9.829677495E0
1.022427267E1,1.415755920E0,-2.261796570E-1,9.772577820E0,9.877185799E0
1.023430467E1,1.432820435E0,-2.243833923E-1,9.786498871E0,9.893375685E0
1.024433567E1,1.440304871E0,-2.204914856E-1,9.798773346E0,9.906515720E0
1.025436667E1,1.417701874E0,-2.439926147E-1,9.793234863E0,9.898326125E0
1.026439867E1,1.411414948E0,-2.616558838E-1,9.781110077E0,9.885882373E0
1.027442967E1,1.413061523E0,-2.863545227E-1,9.771230621E0,9.877028381E0
1.028446167E1,1.389111328E0,-2.986289978E-1,9.733359375E0,9.836518403E0
1.029449267E1,1.379680939E0,-3.106040955E-1,9.723779297E0,9.826081529E0
1.030452367E1,1.386416931E0,-3.185375977E-1,9.742939453E0,9.846242293E0
1.031455529E1,1.403182068E0,-3.131488037E-1,9.762548676E0,9.867843672E0
1.032458629E1,1.426832886E0,-3.061134338E-1,9.781708832E0,9.889963862E0
1.033461729E1,1.418749695E0,-3.085084534E-1,9.791887665E0,9.898943994E0
1.034464929E1,1.422342224E0,-2.992277527E-1,9.797126770E0,9.904357001E0
1.035468029E1,1.409169617E0,-2.853067017E-1,9.793384552E0,9.898360466E0
1.036471129E1,1.413061523E0,-2.808160400E-1,9.801767120E0,9.907080256E0
1.037474329E1,1.396745453E0,-2.763253784E-1,9.780810699E0,9.883901634E0
1.038477429E1,1.393601990E0,-2.868035889E-1,9.774673462E0,9.877683134E0
1.039480529E1,1.389859772E0,-2.523751831E-1,9.754016418E0,9.855771898E0
1.040483729E1,1.382075958E0,-2.411485291E-1,9.738598480E0,9.839135477E0
1.041486829E1,1.393302612E0,-2.463876343E-1,9.743388519E0,9.845588803E0
1.042489929E1,1.401685181E0,-2.480342102E-1,9.747879181E0,9.851263413E0
1.043493129E1,1.417552185E0,-2.676434326E-1,9.757758636E0,9.863819788E0
1.044496229E1,1.425635376E0,-2.751278687E-1,9.761201477E0,9.868595941E0
1.045499429E1,1.431323547E0,-2.860551453E-1,9.766590271E0,9.875059502E0
1.046502529E1,1.455573120E0,-2.794688416E-1,9.749525757E0,9.861543917E0
1.047505629E1,1.447789307E0,-3.032693481E-1,9.756261749E0,9.867761119E0
1.048508829E1,1.446142731E0,-3.004252625E-1,9.761800232E0,9.872908786E0
1.049511929E1,1.436862030E0,-3.124003601E-1,9.754166107E0,9.864376459E0
1.050515029E1,1.439257050E0,-3.137475586E-1,9.763746185E0,9.874241133E0
1.051518229E1,1.428479462E0,-3.140469360E-1,9.765991516E0,9.874906042E0
1.052521329E1,1.419049072E0,-2.933898926E-1,9.775421906E0,9.882239186E0
1.053524429E1,1.411265259E0,-2.978805542E-1,9.772278442E0,9.878149038E0
1.054527629E1,1.405577087E0,-2.845582581E-1,9.770482178E0,9.875167965E0
1.055530729E1,1.386267242E0,-2.695893860E-1,9.767189026E0,9.868758624E0
1.056533829E1,1.387315063E0,-2.597099304E-1,9.750124512E0,9.851752145E0
1.057537029E1,1.365460510E0,-2.716850281E-1,9.740095367E0,9.839093095E0
1.058540129E1,1.379531250E0,-2.688409424E-1,9.767787781E0,9.868386902E0
1.059543329E1,1.413510590E0,-2.791694641E-1,9.794132996E0,9.899544884E0
1.060546429E1,1.428329773E0,-2.636018372E-1,9.793085175E0,9.900208538E0
1.061549529E1,1.403032379E0,-2.567161560E-1,9.772577820E0,9.876116660E0
1.062552729E1,1.395997009E0,-2.472857666E-1,9.743987274E0,9.846585494E0
1.063555829E1,1.373843079E0,-2.621049500E-1,9.737850037E0,9.837777551E0
1.064558929E1,1.356030121E0,-2.966830444E-1,9.781110077E0,9.879117008E0
1.065562129E1,1.365161133E0,-3.110531616E-1,9.767488403E0,9.867332400E0
1.066565229E1,1.361119537E0,-2.790197754E-1,9.726174316E0,9.824915535E0
1.067568329E1,1.376387787E0,-2.932402039E-1,9.763297119E0,9.864198082E0
1.068571529E1,1.421893158E0,-3.236270142E-1,9.827064514E0,9.934672192E0
1.069574629E1,1.448837128E0,-3.029699707E-1,9.829309845E0,9.940133392E0
1.070577729E1,1.468596039E0,-3.067121887E-1,9.812544708E0,9.926574452E0
1.071580929E1,1.443897400E0,-3.294648743E-1,9.742041321E0,9.853971580E0
1.072584029E1,1.409319305E0,-3.216810608E-1,9.743687897E0,9.850335702E0
1.073587129E1,1.415007477E0,-3.570075989E-1,9.757159882E0,9.865691539E0
1.074590329E1,1.439706116E0,-3.935316467E-1,9.782157898E0,9.895364268E0
1.075593429E1,1.445394287E0,-3.643423462E-1,9.791438599E0,9.904250594E0
1.076596629E1,1.440454559E0,-3.115022278E-1,9.769434357E0,9.879969161E0
1.077599729E1,1.398541718E0,-2.456391907E-1,9.728120270E0,9.831204480E0
1.078602829E1,1.411564636E0,-2.046244812E-1,9.699230347E0,9.803542993E0
1.079606029E1,1.412462769E0,-1.739382935E-1,9.710457001E0,9.814187728E0
1.080609129E1,1.416354675E0,-1.666035461E-1,9.723330231E0,9.827358144E0
1.081612229E1,1.417552185E0,-1.698966980E-1,9.771380310E0,9.875129986E0
1.082615429E1,1.403182068E0,-1.842668152E-1,9.788444824E0,9.890223772E0
1.083618529E1,1.398841095E0,-2.113604736E-1,9.806856537E0,9.908373469E0
1.084621629E1,1.375489655E0,-2.423460388E-1,9.815538483E0,9.914408661E0
1.085624829E1,1.371448059E0,-2.793191528E-1,9.812993774E0,9.912302244E0
1.086627929E1,1.380130005E0,-3.053649902E-1,9.797426147E0,9.898866891E0
1.087631029E1,1.403481445E0,-3.246748352E-1,9.775721283E0,9.881290428E0
1.088634229E1,1.400936737E0,-3.490740967E-1,9.751172333E0,9.857476266E0
1.089637329E1,1.408121796E0,-3.574566650E-1,9.725276184E0,9.833187638E0
1.090640429E1,1.411714325E0,-3.412902832E-1,9.709558868E0,9.817583705E0
1.091643629E1,1.427431641E0,-3.399430847E-1,9.740993500E0,9.850892180E0
1.092646729E1,1.435664520E0,-3.448828125E-1,9.760003967E0,9.871056388E0
1.093649929E1,1.427581329E0,-3.287164307E-1,9.774523773E0,9.883691514E0
1.094653029E1,1.412762146E0,-2.844085693E-1,9.803264008E0,9.908621010E0
1.095656129E1,1.413061523E0,-2.670446777E-1,9.804012451E0,9.908921025E0
1.096659329E1,1.408570862E0,-2.404000854E-1,9.792935486E0,9.896638293E0
1.097662429E1,1.405876465E0,-2.155517578E-1,9.768985291E0,9.871981807E0
1.098665529E1,1.390608215E0,-2.092648315E-1,9.768236847E0,9.868942906E0
1.099668729E1,1.366807709E0,-1.793270874E-1,9.775571594E0,9.872290591E0
1.100671829E1,1.352736969E0,-1.549278259E-1,9.744286652E0,9.838954329E0
1.101674929E1,1.349294128E0,-1.751358032E-1,9.713151398E0,9.807985383E0
1.102678129E1,1.382225647E0,-2.074685669E-1,9.702224121E0,9.802384600E0
1.103681229E1,1.398990784E0,-2.320175171E-1,9.753717041E0,9.856267217E0
1.104684329E1,1.416654053E0,-2.890489197E-1,9.813293152E0,9.919232857E0
1.105687529E1,1.442250824E0,-3.329077148E-1,9.836195526E0,9.946942114E0
1.106690629E1,1.442250824E0,-3.385958862E-1,9.827663269E0,9.938697095E0
1.107693829E1,1.460961914E0,-3.481759644E-1,9.817783813E0,9.931994524E0
1.108696929E1,1.454375610E0,-3.623963928E-1,9.780661011E0,9.894840543E0
1.109700029E1,1.439257050E0,-3.302133179E-1,9.750872955E0,9.862049740E0
1.110703229E1,1.426533508E0,-3.101550293E-1,9.727970581E0,9.836900204E0
1.111706329E1,1.408720551E0,-3.026705933E-1,9.714947662E0,9.821217397E0
1.112709429E1,1.389410706E0,-2.833607483E-1,9.721084900E0,9.823962900E0
1.113712629E1,1.394799500E0,-2.655477905E-1,9.753118286E0,9.855927028E0
1.114715729E1,1.429078217E0,-2.492317200E-1,9.775571594E0,9.882620148E0
1.115718829E1,1.448986816E0,-2.383044434E-1,9.790989532E0,9.900496342E0
1.116722029E1,1.436263275E0,-2.371069336E-1,9.772428131E0,9.880254221E0
1.117725129E1,1.420096893E0,-2.427951050E-1,9.777966614E0,9.883534578E0
1.118728229E1,1.408271484E0,-2.555186462E-1,9.786798248E0,9.890901794E0
1.119731429E1,1.379531250E0,-2.583627319E-1,9.768685913E0,9.868996010E0
1.120734529E1,1.393901367E0,-2.712359619E-1,9.755962372E0,9.858769283E0
1.121737629E1,1.389560394E0,-2.874023438E-1,9.757159882E0,9.859799549E0
1.122740829E1,1.388362885E0,-2.790197754E-1,9.766739960E0,9.868870907E0
1.123743929E1,1.400787048E0,-2.767744446E-1,9.771080933E0,9.874858533E0
1.124747129E1,1.406325531E0,-2.829116821E-1,9.772428131E0,9.877152530E0
1.125750229E1,1.400487671E0,-2.942880249E-1,9.765841827E0,9.870138690E0
1.126753329E1,1.388961639E0,-2.906954956E-1,9.776918793E0,9.879365333E0
1.127756529E1,1.372495880E0,-3.031196594E-1,9.782906342E0,9.883363949E0
1.128759629E1,1.357527008E0,-2.899470520E-1,9.778116302E0,9.876158529E0
1.129762729E1,1.365909576E0,-2.830613708E-1,9.767338715E0,9.866445068E0
1.130765929E1,1.366957397E0,-2.775228882E-1,9.765692139E0,9.864802807E0
1.131769004E1,1.390757904E0,-2.751278687E-1,9.762249298E0,9.864654796E0
1.132772104E1,1.400487671E0,-2.662962341E-1,9.755363617E0,9.858975540E0
1.133775304E1,1.388063507E0,-2.791694641E-1,9.774224396E0,9.876240096E0
1.134778404E1,1.406325531E0,-2.664459229E-1,9.767638092E0,9.871955167E0
1.135781504E1,1.420995026E0,-2.701881409E-1,9.784103851E0,9.890445726E0
1.136784704E1,1.425934753E0,-2.639012146E-1,9.774224396E0,9.881214314E0
1.137787804E1,1.433868256E0,-2.652484131E-1,9.787546692E0,9.895575028E0
1.138791004E1,1.440304871E0,-2.734812927E-1,9.811796265E0,9.920716510E0
1.139794104E1,1.439556427E0,-2.692900085E-1,9.792785797E0,9.901691446E0
1.140797204E1,1.416654053E0,-2.772235107E-1,9.810000000E0,9.915637225E0
1.141800404E1,1.405427399E0,-2.802172852E-1,9.809700623E0,9.913827425E0
1.142803504E1,1.405128021E0,-2.731819153E-1,9.819879456E0,9.923660899E0
1.143806604E1,1.380279694E0,-2.820135498E-1,9.809700623E0,9.910344594E0
1.144809804E1,1.378034363E0,-2.701881409E-1,9.810000000E0,9.909999008E0
1.145812904E1,1.387614441E0,-2.703378296E-1,9.789043579E0,9.890598090E0
1.146816004E1,1.375789032E0,-2.647993469E-1,9.770482178E0,9.870422288E0
1.147819204E1,1.377435608E0,-2.836601257E-1,9.738897858E0,9.839914807E0
1.148822304E1,1.364412689E0,-2.791694641E-1,9.722432098E0,9.821672133E0
1.149825404E1,1.391057281E0,-3.041674805E-1,9.753567352E0,9.856958675E0
1.150828604E1,1.411265259E0,-3.207829285E-1,9.778265991E0,9.884789179E0
1.151831704E1,1.458417206E0,-3.001258850E-1,9.778116302E0,9.890834885E0
1.152834804E1,1.455423431E0,-2.781216431E-1,9.756112061E0,9.867995316E0
1.153838004E1,1.455872498E0,-2.606080627E-1,9.722132721E0,9.833989319E0
1.154841104E1,1.432071991E0,-2.619552612E-1,9.725126495E0,9.833490535E0
1.155844304E1,1.411564636E0,-2.782713318E-1,9.732910309E0,9.838673322E0
1.156847404E1,1.414109344E0,-2.853067017E-1,9.770781555E0,9.876703770E0
1.157850504E1,1.406924286E0,-2.573149109E-1,9.750872955E0,9.855210312E0
1.158853704E1,1.382375336E0,-2.435435486E-1,9.756261749E0,9.856719452E0
1.159856804E1,1.409319305E0,-2.600093079E-1,9.798923035E0,9.903165069E0
1.160859904E1,1.429826660E0,-2.808160400E-1,9.817185059E0,9.924735986E0
1.161863104E1,1.429527283E0,-2.760260010E-1,9.805958405E0,9.913453426E0
1.162866204E1,1.429377594E0,-2.871029663E-1,9.794881439E0,9.902790053E0
1.163869304E1,1.423689423E0,-3.317102051E-1,9.790540466E0,9.899070959E0
1.164872504E1,1.423839111E0,-3.451821899E-1,9.796078949E0,9.905030607E0
1.165875604E1,1.433568878E0,-3.661386108E-1,9.776769104E0,9.888093412E0
1.166878704E1,1.440903625E0,-3.622467041E-1,9.792935486E0,9.904999312E0
1.167881904E1,1.419947205E0,-3.245251465E-1,9.789642334E0,9.897406916E0
1.168885004E1,1.424288177E0,-2.553689575E-1,9.761051788E0,9.867722236E0
1.169888204E1,1.396895142E0,-1.844165039E-1,9.700876923E0,9.802669971E0
1.170891304E1,1.396745453E0,-1.519340515E-1,9.663903809E0,9.765501453E0
1.171894404E1,1.405427399E0,-1.445993042E-1,9.696535950E0,9.798925684E0
1.172897604E1,1.426832886E0,-1.663041687E-1,9.730515289E0,9.835976665E0
1.173900704E1,1.441502380E0,-1.850152588E-1,9.776619415E0,9.884050129E0
1.174903804E1,1.430724792E0,-2.058219910E-1,9.813442841E0,9.919324398E0
1.175907004E1,1.426683197E0,-2.389031982E-1,9.831106110E0,9.936958640E0
1.176910104E1,1.417701874E0,-2.685415649E-1,9.821226654E0,9.926655336E0
1.177913204E1,1.419647827E0,-2.992277527E-1,9.824519806E0,9.931068755E0
1.178916404E1,1.430425415E0,-3.210823059E-1,9.773026886E0,9.882371438E0
1.179919504E1,1.452279968E0,-3.447331238E-1,9.737550659E0,9.851286762E0
1.180922604E1,1.451381836E0,-3.577560425E-1,9.718989258E0,9.833272640E0
1.181925804E1,1.469943237E0,-3.477268982E-1,9.710307312E0,9.827090882E0
1.182928904E1,1.469045105E0,-3.634442139E-1,9.724527740E0,9.841576347E0
1.183932004E1,1.479223938E0,-3.694317627E-1,9.734556885E0,9.853232009E0
1.184935204E1,1.497186584E0,-3.261717224E-1,9.768685913E0,9.888133299E0
1.185938304E1,1.493594055E0,-3.064128113E-1,9.760602722E0,9.878971481E0
1.186941504E1,1.487157440E0,-2.808160400E-1,9.768236847E0,9.884783558E0
1.187944604E1,1.464853821E0,-2.381547546E-1,9.782756653E0,9.894687571E0
1.188947704E1,1.438658295E0,-2.052232361E-1,9.774673462E0,9.882109874E0
1.189950904E1,1.422791290E0,-1.848655701E-1,9.732610931E0,9.837795783E0
1.190954004E1,1.413061523E0,-1.637594604E-1,9.766739960E0,9.869790751E0
1.191957104E1,1.382824402E0,-1.685494995E-1,9.756411438E0,9.855362825E0
1.192960304E1,1.402134247E0,-1.922003174E-1,9.750872955E0,9.853042413E0
1.193963404E1,1.426982574E0,-2.323168945E-1,9.756860504E0,9.863395830E0
1.194966504E1,1.442250824E0,-2.510279846E-1,9.784552917E0,9.893461390E0
1.195969704E1,1.441203003E0,-2.794688416E-1,9.815089417E0,9.924270713E0
1.196972804E1,1.448388062E0,-3.439846802E-1,9.833650818E0,9.945694639E0
1.197975904E1,1.459914093E0,-3.580554199E-1,9.860594788E0,9.974511638E0
1.198979104E1,1.475781097E0,-3.502716064E-1,9.822723541E0,9.939140698E0
1.199982204E1,1.482816467E0,-3.492237854E-1,9.768236847E0,9.886311396E0
1.200985404E1,1.497485962E0,-3.210823059E-1,9.733658752E0,9.853409093E0
1.201988504E1,1.501377869E0,-3.150947571E-1,9.715546417E0,9.835916958E0
1.202991604E1,1.496587830E0,-2.877017212E-1,9.690099335E0,9.809208558E0
1.203994804E1,1.483864288E0,-2.662962341E-1,9.698781281E0,9.815249627E0
1.204997904E1,1.469643860E0,-2.652484131E-1,9.708960114E0,9.823141874E0
1.206001004E1,1.492246857E0,-2.603086853E-1,9.735155640E0,9.852300068E0
1.207004204E1,1.486858063E0,-2.565664673E-1,9.762099609E0,9.878014073E0
1.208007304E1,1.493594055E0,-2.716850281E-1,9.779164124E0,9.896296626E0
1.209010404E1,1.478475494E0,-2.745291138E-1,9.752968597E0,9.868214250E0
1.210013604E1,1.463057556E0,-2.920426941E-1,9.750573578E0,9.864051472E0
1.211016704E1,1.449286194E0,-3.082090759E-1,9.743238831E0,9.855258810E0
1.212019804E1,1.440304871E0,-3.101550293E-1,9.734257507E0,9.845122827E0
1.213023004E1,1.433718567E0,-3.131488037E-1,9.746232605E0,9.856097660E0
1.214026104E1,1.444645844E0,-3.097059631E-1,9.732760620E0,9.844264761E0
1.215029304E1,1.433419189E0,-3.146456909E-1,9.737251282E0,9.847220674E0
1.216032404E1,1.452130280E0,-3.029699707E-1,9.763147430E0,9.875197259E0
1.217035504E1,1.453477478E0,-3.106040955E-1,9.798773346E0,9.910854190E0
1.218038704E1,1.469344482E0,-2.996768188E-1,9.795180817E0,9.909306062E0
1.219041804E1,1.460363159E0,-2.787203979E-1,9.792336731E0,9.904554723E0
1.220044904E1,1.455872498E0,-2.827619934E-1,9.781110077E0,9.892908238E0
1.221048104E1,1.433718567E0,-2.734812927E-1,9.767937469E0,9.876383111E0
1.222051204E1,1.433119812E0,-2.743794250E-1,9.764494629E0,9.872916075E0
1.223054304E1,1.439107361E0,-2.770738220E-1,9.763895874E0,9.873270104E0
1.224057504E1,1.456171875E0,-2.779719543E-1,9.763596497E0,9.875501075E0
1.225060604E1,1.454674988E0,-2.887495422E-1,9.765692139E0,9.877661594E0
1.226063704E1,1.476828918E0,-2.929408264E-1,9.749974823E0,9.865538355E0
1.227066904E1,1.488953705E0,-2.984793091E-1,9.750274200E0,9.867822456E0
1.228070004E1,1.513802032E0,-3.143463135E-1,9.748028870E0,9.869877256E0
1.229073104E1,1.516047363E0,-3.308120728E-1,9.748328247E0,9.871055660E0
1.230076304E1,1.509011993E0,-3.173400879E-1,9.726473694E0,9.847949657E0
1.231079404E1,1.506018219E0,-3.086581421E-1,9.711205444E0,9.832134657E0
1.232082604E1,1.502425690E0,-3.203338623E-1,9.717642059E0,9.838316113E0
1.233085704E1,1.508413239E0,-3.113525391E-1,9.749974823E0,9.870879391E0
1.234088804E1,1.512454834E0,-3.053649902E-1,9.764195251E0,9.885356661E0
1.235092004E1,1.522483978E0,-3.001258850E-1,9.770931244E0,9.893388216E0
1.236095104E1,1.506018219E0,-2.878514099E-1,9.746232605E0,9.866103552E0
1.237098204E1,1.478774872E0,-2.760260010E-1,9.735455017E0,9.850992329E0
1.238101404E1,1.460363159E0,-2.847079468E-1,9.740993500E0,9.853967401E0
1.239104504E1,1.429826660E0,-2.965333557E-1,9.763746185E0,9.872338927E0
1.240107604E1,1.423390045E0,-3.088078308E-1,9.782906342E0,9.890735968E0
1.241110804E1,1.441801758E0,-2.983296204E-1,9.764794006E0,9.875170624E0
1.242113904E1,1.435814209E0,-2.803669739E-1,9.729916534E0,9.839280657E0
1.243117004E1,1.421144714E0,-2.706372070E-1,9.733359375E0,9.840283610E0
1.244120204E1,1.461710358E0,-3.399430847E-1,9.776918793E0,9.891425557E0
1.245123304E1,1.518741760E0,-3.800596619E-1,9.834548950E0,9.958382144E0
1.246126504E1,1.560804291E0,-3.773652649E-1,9.829758911E0,9.960053957E0
1.247129604E1,1.554667053E0,-3.589535522E-1,9.798174591E0,9.927238418E0
1.248132704E1,1.518741760E0,-3.381468201E-1,9.756112061E0,9.879404959E0
1.249135904E1,1.488504639E0,-3.260220337E-1,9.710606689E0,9.829436337E0
1.250139004E1,1.467697906E0,-3.152444458E-1,9.713750153E0,9.829061920E0
1.251142104E1,1.466799774E0,-2.833607483E-1,9.715696106E0,9.829880249E0
1.252145304E1,1.456770630E0,-2.453398132E-1,9.717043304E0,9.828697924E0
1.253148404E1,1.451830902E0,-2.252815247E-1,9.694140930E0,9.804842330E0
1.254151504E1,1.473835144E0,-2.032772827E-1,9.682914276E0,9.796547380E0
1.255154704E1,1.487307129E0,-2.113604736E-1,9.737850037E0,9.853044153E0
1.256157804E1,1.498533783E0,-2.392025757E-1,9.771080933E0,9.888217431E0
1.257160904E1,1.495390320E0,-2.668949890E-1,9.789642334E0,9.906791719E0
1.258164104E1,1.477876740E0,-2.992277527E-1,9.817035370E0,9.932161918E0
1.259167204E1,1.472338257E0,-3.370989990E-1,9.806856537E0,9.922492167E0
1.260170404E1,1.471889191E0,-3.399430847E-1,9.804760895E0,9.920451365E0
1.261173504E1,1.471440125E0,-3.653901672E-1,9.780511322E0,9.897325282E0
1.262176604E1,1.490600281E0,-3.655398560E-1,9.760752411E0,9.880677923E0
1.263179804E1,1.500180359E0,-3.357518005E-1,9.732012177E0,9.852681431E0
1.264182904E1,1.489552460E0,-3.309617615E-1,9.702074432E0,9.821331402E0
1.265186004E1,1.490450592E0,-3.104544067E-1,9.699978790E0,9.818727689E0
1.266189204E1,1.501527557E0,-3.091072083E-1,9.702074432E0,9.822442698E0
1.267192304E1,1.498384094E0,-2.954855347E-1,9.717192993E0,9.836478347E0
1.268195404E1,1.509760437E0,-3.227288818E-1,9.711953888E0,9.833899472E0
1.269198604E1,1.514849854E0,-3.155438232E-1,9.760453033E0,9.882346958E0
1.270201704E1,1.523232422E0,-2.930905151E-1,9.789792023E0,9.911920445E0
1.271204804E1,1.502126312E0,-3.011737061E-1,9.763895874E0,9.883357309E0
1.272208004E1,1.489103394E0,-2.953358459E-1,9.782756653E0,9.899847469E0
1.273211104E1,1.493743744E0,-2.667453003E-1,9.830357666E0,9.946776124E0
1.274214204E1,1.496737518E0,-2.621049500E-1,9.781409454E0,9.898731894E0
1.275217404E1,1.492995300E0,-2.909948730E-1,9.728269958E0,9.846468878E0
1.276220504E1,1.496587830E0,-3.269201660E-1,9.739945679E0,9.859675134E0
1.277223704E1,1.484912109E0,-3.272195435E-1,9.767189026E0,9.884837787E0
1.278226804E1,1.449136505E0,-3.222798157E-1,9.759704590E0,9.871965082E0
1.279229904E1,1.453028412E0,-3.135978699E-1,9.740544434E0,9.853316246E0
1.280233104E1,1.497935028E0,-3.450325012E-1,9.767189026E0,9.887408065E0
1.281236204E1,1.539548492E0,-3.788621521E-1,9.805509338E0,9.932862602E0
1.282239304E1,1.568288727E0,-3.594026184E-1,9.797725525E0,9.928953884E0
1.283242504E1,1.549577637E0,-3.236270142E-1,9.741292877E0,9.869078590E0
1.284245604E1,1.498384094E0,-3.195854187E-1,9.708810425E0,9.828951602E0
1.285248704E1,1.461111603E0,-3.189866638E-1,9.686057739E0,9.800832319E0
1.286251904E1,1.479822693E0,-2.984793091E-1,9.736053772E0,9.852396061E0
1.287255004E1,1.497036896E0,-2.835104370E-1,9.761650543E0,9.879844076E0
1.288258204E1,1.510508881E0,-2.773731995E-1,9.743538208E0,9.863828353E0
1.289261304E1,1.499132538E0,-2.624043274E-1,9.717791748E0,9.836245770E0
1.290264404E1,1.473685455E0,-2.779719543E-1,9.704020386E0,9.819217325E0
1.291267604E1,1.457219696E0,-2.966830444E-1,9.719887390E0,9.832991455E0
1.292270704E1,1.449136505E0,-3.324586487E-1,9.746082916E0,9.858836522E0
1.293273804E1,1.458716583E0,-3.441343689E-1,9.784403229E0,9.898526611E0
1.294277004E1,1.449735260E0,-3.424877930E-1,9.790390778E0,9.903069312E0
1.295280104E1,1.467847595E0,-3.338058472E-1,9.769584045E0,9.884876091E0
1.296283204E1,1.469194794E0,-3.370989990E-1,9.749226379E0,9.865068883E0
1.297286404E1,1.464853821E0,-3.519181824E-1,9.745484161E0,9.861242552E0
1.298289504E1,1.476379852E0,-3.501219177E-1,9.763297119E0,9.880498644E0
1.299292604E1,1.483265533E0,-3.231779480E-1,9.773475952E0,9.890669988E0
1.300295804E1,1.478026428E0,-2.974314880E-1,9.771529999E0,9.887154602E0
1.301298904E1,1.470691681E0,-2.785707092E-1,9.774074707E0,9.888026701E0
1.302302104E1,1.457070007E0,-2.731819153E-1,9.762099609E0,9.874019959E0
1.303305204E1,1.464105377E0,-2.582130432E-1,9.756710815E0,9.869330497E0
1.304308304E1,1.488953705E0,-2.618055725E-1,9.754764862E0,9.871218912E0
1.305311504E1,1.487307129E0,-2.763253784E-1,9.767787781E0,9.884235749E0
1.306314604E1,1.486558685E0,-2.805166626E-1,9.739346924E0,9.856136405E0
1.307317704E1,1.462458801E0,-2.796185303E-1,9.714199219E0,9.827646653E0
1.308320904E1,1.454974365E0,-2.930905151E-1,9.722881165E0,9.835510693E0
1.309324004E1,1.482068024E0,-3.261717224E-1,9.744586029E0,9.862041903E0
1.310327104E1,1.501826935E0,-3.327580261E-1,9.749675446E0,9.870277774E0
1.311330304E1,1.512005768E0,-3.252735901E-1,9.762698364E0,9.884444532E0
1.312333404E1,1.504371643E0,-3.128494263E-1,9.744136963E0,9.864543272E0
1.313336504E1,1.488354950E0,-3.086581421E-1,9.735754395E0,9.853698998E0
1.314339704E1,1.454824677E0,-3.270698547E-1,9.725126495E0,9.838779136E0
1.315342804E1,1.468895416E0,-3.339555359E-1,9.747879181E0,9.863585989E0
1.316346004E1,1.453327789E0,-3.402424622E-1,9.760902100E0,9.874367645E0
1.317349104E1,1.431473236E0,-3.014730835E-1,9.717791748E0,9.827282336E0
1.318352204E1,1.434317322E0,-2.924917603E-1,9.678872681E0,9.788942434E0
1.319355404E1,1.446292419E0,-3.115022278E-1,9.722881165E0,9.834796060E0
1.320358504E1,1.492097168E0,-3.511697388E-1,9.791288910E0,9.910550573E0
1.321361604E1,1.543590088E0,-3.854484558E-1,9.822723541E0,9.950735583E0
1.322364804E1,1.570983124E0,-3.995191956E-1,9.819131012E0,9.952031822E0
1.323367904E1,1.512155457E0,-3.757186890E-1,9.790241089E0,9.913455464E0
1.324371004E1,1.460363159E0,-3.317102051E-1,9.768236847E0,9.882365269E0
1.325374204E1,1.444047089E0,-3.442840576E-1,9.742789764E0,9.855240022E0
1.326377304E1,1.445993042E0,-3.300636292E-1,9.717642059E0,9.830178283E0
1.327380404E1,1.433419189E0,-2.972817993E-1,9.720037079E0,9.829658583E0
1.328383604E1,1.432071991E0,-2.258802795E-1,9.729916534E0,9.837333371E0
1.329386704E1,1.437610474E0,-1.871109009E-1,9.726922760E0,9.834366311E0
1.330389904E1,1.466650085E0,-1.740879822E-1,9.717342682E0,9.828942868E0
1.331393033E1,1.495839386E0,-2.046244812E-1,9.744586029E0,9.860850041E0
1.332396133E1,1.492546234E0,-2.330653381E-1,9.800270233E0,9.916012826E0
1.333399333E1,1.469045105E0,-2.567161560E-1,9.833501129E0,9.945940939E0
1.334402433E1,1.468596039E0,-2.999761963E-1,9.838141479E0,9.951672614E0
1.335405533E1,1.460063782E0,-2.983296204E-1,9.821825409E0,9.934235812E0
1.336408733E1,1.448388062E0,-3.182382202E-1,9.790540466E0,9.902211175E0
1.337411833E1,1.449735260E0,-3.424877930E-1,9.739346924E0,9.852609234E0
1.338414933E1,1.452429657E0,-3.534150696E-1,9.712852020E0,9.827204510E0
1.339418133E1,1.463207245E0,-3.442840576E-1,9.707762604E0,9.823449584E0
1.340421233E1,1.469793549E0,-3.499722290E-1,9.714348907E0,9.831141761E0
1.341424333E1,1.475930786E0,-3.308120728E-1,9.721683655E0,9.838645303E0
1.342427533E1,1.469943237E0,-3.323089600E-1,9.755213928E0,9.870935171E0
1.343430633E1,1.473386078E0,-3.375480652E-1,9.754914551E0,9.871330362E0
1.344433833E1,1.476080475E0,-3.312611389E-1,9.757010193E0,9.873590806E0
1.345436933E1,1.470392303E0,-3.122506714E-1,9.778565369E0,9.893426842E0
1.346440033E1,1.477128296E0,-3.107537842E-1,9.790540466E0,9.906218175E0
1.347443233E1,1.471140747E0,-2.862048340E-1,9.790839844E0,9.904883298E0
1.348446333E1,1.462159424E0,-2.571652222E-1,9.758656769E0,9.870938459E0
1.349449433E1,1.439706116E0,-2.219883728E-1,9.752669220E0,9.860861496E0
1.350452633E1,1.434916077E0,-2.170486450E-1,9.793384552E0,9.900327027E0
1.351455733E1,1.423240356E0,-1.904040527E-1,9.746382294E0,9.851590462E0
1.352458833E1,1.474583588E0,-1.984872437E-1,9.730515289E0,9.843613246E0
1.353462033E1,1.473835144E0,-2.302212524E-1,9.695488129E0,9.809570934E0
1.354465133E1,1.410516815E0,-2.338137817E-1,9.719887390E0,9.824481536E0
1.355468233E1,1.426084442E0,-2.739303589E-1,9.777816925E0,9.885062392E0
1.356471433E1,1.467248840E0,-3.435356140E-1,9.843829651E0,9.958504811E0
1.357474533E1,1.517544250E0,-3.481759644E-1,9.877958679E0,9.999911736E0
1.358477733E1,1.550475769E0,-3.481759644E-1,9.849368134E0,9.976735651E0
1.359480833E1,1.544188843E0,-3.258723450E-1,9.782008209E0,9.908501227E0
1.360483933E1,1.484013977E0,-2.984793091E-1,9.713151398E0,9.830396607E0
1.361487133E1,1.438658295E0,-2.900967407E-1,9.675280151E0,9.785956255E0
1.362490233E1,1.392105103E0,-2.776725769E-1,9.696386261E0,9.799743119E0
1.363493333E1,1.416504364E0,-2.746788025E-1,9.731114044E0,9.837505456E0
1.364496533E1,1.443747711E0,-2.794688416E-1,9.778116302E0,9.888077099E0
1.365499633E1,1.481918335E0,-2.475851440E-1,9.751771088E0,9.866834330E0
1.366502733E1,1.457818451E0,-2.442919922E-1,9.739496613E0,9.851025707E0
1.367505933E1,1.451381836E0,-2.665956116E-1,9.745633850E0,9.856721645E0
1.368509033E1,1.454375610E0,-2.854563904E-1,9.762249298E0,9.874117942E0
1.369512233E1,1.465003510E0,-3.126997375E-1,9.753567352E0,9.867932534E0
1.370515333E1,1.447639618E0,-3.185375977E-1,9.762848053E0,9.874731833E0
1.371518433E1,1.437161407E0,-2.993774414E-1,9.753567352E0,9.863424145E0
1.372521633E1,1.438209229E0,-3.132984924E-1,9.753717041E0,9.864157229E0
1.373524733E1,1.447789307E0,-2.951861572E-1,9.750423889E0,9.861744002E0
1.374527833E1,1.446142731E0,-2.939886475E-1,9.742340698E0,9.853474535E0
1.375531033E1,1.420096893E0,-2.903961182E-1,9.759704590E0,9.866754217E0
1.376534133E1,1.419498138E0,-2.778222656E-1,9.770482178E0,9.876967255E0
1.377537233E1,1.426533508E0,-2.710862732E-1,9.784702606E0,9.891859821E0
1.378540433E1,1.403930511E0,-2.576142883E-1,9.791588287E0,9.895078938E0
1.379543533E1,1.412462769E0,-2.688409424E-1,9.796528015E0,9.901479065E0
1.380546633E1,1.423988800E0,-2.573149109E-1,9.792037354E0,9.898381211E0
1.381549833E1,1.423988800E0,-2.707868958E-1,9.786498871E0,9.893261838E0
1.382552933E1,1.440005493E0,-2.603086853E-1,9.798473969E0,9.907142300E0
1.383556133E1,1.446142731E0,-2.716850281E-1,9.782157898E0,9.892206766E0
1.384559233E1,1.456920319E0,-2.890489197E-1,9.759405212E0,9.871785866E0
1.385562333E1,1.449735260E0,-2.841091919E-1,9.742191010E0,9.853564635E0
1.386565533E1,1.449735260E0,-2.854563904E-1,9.744735718E0,9.856119515E0
1.387568633E1,1.462907867E0,-2.865042114E-1,9.761800232E0,9.874964702E0
1.388571733E1,1.490749969E0,-2.835104370E-1,9.759255524E0,9.876526819E0
1.389574933E1,1.485061798E0,-2.688409424E-1,9.764794006E0,9.880733069E0
1.390578033E1,1.462608490E0,-2.589614868E-1,9.742939453E0,9.855513880E0
1.391581133E1,1.432670746E0,-2.493814087E-1,9.712702332E0,9.820963452E0
1.392584333E1,1.416055298E0,-2.739303589E-1,9.733658752E0,9.839937152E0
1.393587433E1,1.404529266E0,-3.046165466E-1,9.777068481E0,9.882133464E0
1.394590533E1,1.403780823E0,-2.933898926E-1,9.738299103E0,9.843330109E0
1.395593733E1,1.386117554E0,-2.609074402E-1,9.700427856E0,9.802433125E0
1.396596833E1,1.399290161E0,-2.812651062E-1,9.770182800E0,9.873884492E0
1.397600033E1,1.450783081E0,-3.221301270E-1,9.818831635E0,9.930659295E0
1.398603133E1,1.479373627E0,-3.255729675E-1,9.845775604E0,9.961618409E0
1.399606233E1,1.476679230E0,-3.080593872E-1,9.807305603E0,9.922637015E0
1.400609433E1,1.439706116E0,-3.019221497E-1,9.751022644E0,9.861356564E0
1.401612533E1,1.409468994E0,-2.971321106E-1,9.764344940E0,9.870021401E0
1.402615633E1,1.422940979E0,-3.320095825E-1,9.752669220E0,9.861518560E0
1.403618833E1,1.452878723E0,-3.540138245E-1,9.760902100E0,9.874785677E0
1.404621933E1,1.445394287E0,-3.186872864E-1,9.775421906E0,9.886839721E0
1.405625033E1,1.427581329E0,-2.543211365E-1,9.752669220E0,9.859879543E0
1.406628233E1,1.413660278E0,-2.091151428E-1,9.724976807E0,9.829411906E0
1.407631333E1,1.411265259E0,-1.749861145E-1,9.704918518E0,9.808554084E0
1.408634433E1,1.441203003E0,-1.830693054E-1,9.744436340E0,9.852137842E0
1.409637633E1,1.460512848E0,-1.922003174E-1,9.765542450E0,9.876024407E0
1.410640733E1,1.436263275E0,-1.942959595E-1,9.793085175E0,9.899753550E0
1.411643933E1,1.420096893E0,-2.044747925E-1,9.812245331E0,9.916584269E0
1.412647033E1,1.409618683E0,-2.330653381E-1,9.819879456E0,9.923274500E0
1.413650133E1,1.398691406E0,-2.676434326E-1,9.811646576E0,9.914453045E0
1.414653333E1,1.412462769E0,-2.778222656E-1,9.780661011E0,9.886028833E0
1.415656433E1,1.425485687E0,-2.915936279E-1,9.766141205E0,9.873932870E0
1.416659533E1,1.430275726E0,-3.134481812E-1,9.755812683E0,9.865080817E0
1.417662733E1,1.439706116E0,-3.094065857E-1,9.731263733E0,9.842051614E0
1.418665833E1,1.444645844E0,-2.992277527E-1,9.723330231E0,9.834616903E0
1.419668933E1,1.439706116E0,-3.037184143E-1,9.738299103E0,9.848830793E0
1.420672133E1,1.438807983E0,-3.104544067E-1,9.753866730E0,9.864302638E0
1.421675233E1,1.427281952E0,-3.065625000E-1,9.766590271E0,9.875089866E0
1.422678333E1,1.445543976E0,-2.947370911E-1,9.765991516E0,9.876793894E0
1.423681533E1,1.412013702E0,-2.754272461E-1,9.775122528E0,9.880418174E0
1.424684633E1,1.426982574E0,-2.613565063E-1,9.781708832E0,9.888701338E0
1.425687833E1,1.436712341E0,-2.345622253E-1,9.787995758E0,9.895656762E0
1.426690933E1,1.440155182E0,-2.231858826E-1,9.760153656E0,9.868356412E0
1.427694033E1,1.428629150E0,-1.992356873E-1,9.709259491E0,9.815823754E0
1.428697233E1,1.392105103E0,-1.908531189E-1,9.756710815E0,9.857372239E0
1.429700333E1,1.363514557E0,-1.868115234E-1,9.747430115E0,9.844108103E0
1.430703433E1,1.368304596E0,-1.962419128E-1,9.723928986E0,9.821688413E0
1.431706583E1,1.392554169E0,-2.272274780E-1,9.730814667E0,9.832578172E0
1.432709683E1,1.415007477E0,-2.498304749E-1,9.768236847E0,9.873353661E0
1.433712783E1,1.446142731E0,-2.650987244E-1,9.802964630E0,9.912604182E0
1.434715983E1,1.425785065E0,-2.875520325E-1,9.837542725E0,9.944485712E0
1.435719083E1,1.423240356E0,-3.067121887E-1,9.810449066E0,9.917892738E0
1.436722283E1,1.422641602E0,-3.040177917E-1,9.802665253E0,9.910024319E0
1.437725383E1,1.425036621E0,-2.960842896E-1,9.783205719E0,9.890880113E0
1.438728483E1,1.443448334E0,-2.839595032E-1,9.755213928E0,9.865514425E0
1.439731683E1,1.429377594E0,-2.665956116E-1,9.727521515E0,9.835591917E0
1.440734783E1,1.432221680E0,-2.555186462E-1,9.749825134E0,9.857770482E0
1.441737883E1,1.421294403E0,-2.401007080E-1,9.742340698E0,9.848397251E0
1.442741083E1,1.402433624E0,-2.353106689E-1,9.751471710E0,9.854612712E0
1.443744183E1,1.409169617E0,-2.336640930E-1,9.780211945E0,9.883972056E0
1.444747283E1,1.418450317E0,-2.392025757E-1,9.800270233E0,9.905277170E0
1.445750483E1,1.440753937E0,-2.323168945E-1,9.807155914E0,9.915142469E0
1.446753583E1,1.430425415E0,-2.285746765E-1,9.782906342E0,9.889571262E0
1.447756683E1,1.407523041E0,-2.333647156E-1,9.744136963E0,9.848034593E0
1.448759883E1,1.378034363E0,-2.406994629E-1,9.733958130E0,9.833964400E0
1.449762983E1,1.376986542E0,-2.622546387E-1,9.735005951E0,9.835405955E0
1.450766183E1,1.385668488E0,-2.659968567E-1,9.752220154E0,9.853762196E0
1.451769283E1,1.404529266E0,-2.586621094E-1,9.766141205E0,9.870011276E0
1.452772383E1,1.415755920E0,-2.601589966E-1,9.774224396E0,9.879651313E0
1.453775583E1,1.409618683E0,-2.618055725E-1,9.782906342E0,9.887407318E0
1.454778683E1,1.386117554E0,-2.460882568E-1,9.764943695E0,9.865901209E0
1.455781783E1,1.395398254E0,-2.483335876E-1,9.763446808E0,9.865784278E0
1.456784983E1,1.390458527E0,-2.625540161E-1,9.769883423E0,9.871825141E0
1.457788083E1,1.379381561E0,-2.468367004E-1,9.776769104E0,9.876681425E0
1.458791183E1,1.395547943E0,-2.511776733E-1,9.780810699E0,9.883061379E0
1.459794383E1,1.380429382E0,-2.475851440E-1,9.782157898E0,9.882180773E0
1.460797483E1,1.377285919E0,-2.267784119E-1,9.783505096E0,9.882576431E0
1.461800683E1,1.370400238E0,-2.329156494E-1,9.772278442E0,9.870647014E0
1.462803783E1,1.398242340E0,-2.375559998E-1,9.776020660E0,9.878364968E0
1.463806883E1,1.399739227E0,-2.423460388E-1,9.769883423E0,9.872619896E0
1.464810083E1,1.406475220E0,-2.487826538E-1,9.765841827E0,9.869738191E0
1.465813183E1,1.417402496E0,-2.420466614E-1,9.775870972E0,9.881056101E0
1.466816283E1,1.403930511E0,-2.392025757E-1,9.772278442E0,9.875508327E0
1.467819483E1,1.403780823E0,-2.380050659E-1,9.771679688E0,9.874865616E0
1.468822583E1,1.409618683E0,-2.369572449E-1,9.767189026E0,9.871228649E0
1.469825683E1,1.407523041E0,-2.321672058E-1,9.765542450E0,9.869186495E0
1.470828883E1,1.398392029E0,-2.380050659E-1,9.778265991E0,9.880619033E0
1.471831983E1,1.398691406E0,-2.366578674E-1,9.776020660E0,9.878406984E0
1.472835083E1,1.403631134E0,-2.475851440E-1,9.761500854E0,9.865007739E0
1.473838283E1,1.386865997E0,-2.302212524E-1,9.759854279E0,9.860585919E0
1.474841383E1,1.383872223E0,-2.489323425E-1,9.781858521E0,9.882399797E0
1.475844583E1,1.391057281E0,-2.553689575E-1,9.832752686E0,9.933945794E0
1.476847683E1,1.401086426E0,-2.230361938E-1,9.803413696E0,9.905539279E0
1.477850783E1,1.375639343E0,-2.086660767E-1,9.766590271E0,9.865202008E0
1.478853983E1,1.364712067E0,-1.908531189E-1,9.752220154E0,9.849094469E0
1.479857083E1,1.352287903E0,-2.098635864E-1,9.766290894E0,9.861701837E0
1.480860183E1,1.348096619E0,-2.213896179E-1,9.791438599E0,9.886285839E0
1.481863383E1,1.361269226E0,-2.186952209E-1,9.781409454E0,9.878099636E0
1.482866483E1,1.347048798E0,-2.004331970E-1,9.725725250E0,9.820613299E0
1.483869583E1,1.353934479E0,-2.028282166E-1,9.786049805E0,9.881348523E0
1.484872783E1,1.389560394E0,-2.414479065E-1,9.849218445E0,9.949687390E0
1.485875883E1,1.419198761E0,-2.242337036E-1,9.864786072E0,9.968872059E0
1.486878983E1,1.427880707E0,-2.366578674E-1,9.883646851E0,9.989060282E0
1.487882183E1,1.424138489E0,-2.242337036E-1,9.786049805E0,9.891674376E0
1.488885283E1,1.395098877E0,-2.154020691E-1,9.767488403E0,9.868967962E0
1.489888483E1,1.394350433E0,-2.673440552E-1,9.768835602E0,9.871465696E0
1.490891583E1,1.435514832E0,-3.058140564E-1,9.819430389E0,9.928516417E0
1.491894683E1,1.458417206E0,-3.121009827E-1,9.848470001E0,9.960760470E0
1.492897883E1,1.425785065E0,-2.618055725E-1,9.809700623E0,9.916230711E0
1.493900983E1,1.393751678E0,-2.201921082E-1,9.732012177E0,9.833772893E0
1.494904083E1,1.373693390E0,-1.817221069E-1,9.699829102E0,9.798302968E0
1.495907283E1,1.383273468E0,-1.700463867E-1,9.718240814E0,9.817666005E0
1.496910383E1,1.393152924E0,-1.615141296E-1,9.752220154E0,9.852550929E0
1.497913483E1,1.403032379E0,-1.552272034E-1,9.781559143E0,9.882888981E0
1.498916683E1,1.391656036E0,-1.695973206E-1,9.811047821E0,9.910707801E0
1.499919783E1,1.379830627E0,-1.676513672E-1,9.832303619E0,9.930067170E0
1.500922983E1,1.362766113E0,-2.168989563E-1,9.838590546E0,9.934890063E0
1.501926083E1,1.344803467E0,-2.368075562E-1,9.805060272E0,9.899685910E0
1.502929183E1,1.362017670E0,-2.745291138E-1,9.805509338E0,9.903457566E0
1.503932383E1,1.383123779E0,-2.927911377E-1,9.782606964E0,9.884237808E0
1.504935483E1,1.404080200E0,-2.830613708E-1,9.770631866E0,9.875060102E0
1.505938583E1,1.412313080E0,-2.917433167E-1,9.767338715E0,9.873228852E0
1.506941783E1,1.425335999E0,-2.775228882E-1,9.737550659E0,9.845226991E0
1.507944883E1,1.447040863E0,-2.824626160E-1,9.763596497E0,9.874286249E0
1.508947983E1,1.457369385E0,-2.776725769E-1,9.753567352E0,9.865754086E0
1.509951183E1,1.433868256E0,-2.522254944E-1,9.777667236E0,9.885462683E0
1.510954283E1,1.437760162E0,-2.442919922E-1,9.783355408E0,9.891454691E0
1.511957383E1,1.422641602E0,-2.402503967E-1,9.788893890E0,9.894648704E0
1.512960583E1,1.426084442E0,-2.113604736E-1,9.797126770E0,9.902630107E0
1.513963683E1,1.439855804E0,-1.969903564E-1,9.798473969E0,9.905659092E0
1.514966883E1,1.421593781E0,-1.556762695E-1,9.718989258E0,9.823640678E0
1.515969983E1,1.384920044E0,-1.502874756E-1,9.724677429E0,9.823947320E0
1.516973083E1,1.333427124E0,-1.634600830E-1,9.721234589E0,9.813620587E0
1.517976283E1,1.339863739E0,-1.812730408E-1,9.722282410E0,9.815847901E0
1.518979383E1,1.391206970E0,-2.267784119E-1,9.761051788E0,9.862302839E0
1.519982483E1,1.454674988E0,-2.877017212E-1,9.813143463E0,9.924547155E0
1.520985683E1,1.460363159E0,-2.845582581E-1,9.833800507E0,9.945715980E0
1.521988783E1,1.437610474E0,-2.972817993E-1,9.827663269E0,9.936702958E0
1.522991883E1,1.406026154E0,-3.198847961E-1,9.809850311E0,9.915260912E0
1.523995083E1,1.415905609E0,-3.071612549E-1,9.773026886E0,9.879837612E0
1.524998183E1,1.423689423E0,-2.784210205E-1,9.732311554E0,9.839832215E0
1.526001383E1,1.436412964E0,-2.495310974E-1,9.713450775E0,9.822254015E0
1.527004483E1,1.436562653E0,-2.448907471E-1,9.707762604E0,9.816533935E0
1.528007583E1,1.433568878E0,-2.384541321E-1,9.731712799E0,9.839624693E0
1.529010783E1,1.445993042E0,-2.299218750E-1,9.769434357E0,9.878542787E0
1.530013883E1,1.447639618E0,-2.237846375E-1,9.789642334E0,9.898628039E0
1.531016983E1,1.432820435E0,-2.249821472E-1,9.800120544E0,9.906863987E0
1.532020229E1,1.442101135E0,-2.338137817E-1,9.821076965E0,9.929142829E0
1.533023329E1,1.431173859E0,-2.216889954E-1,9.808353424E0,9.914696239E0
1.534026429E1,1.427431641E0,-2.303709412E-1,9.785451050E0,9.891697736E0
1.535029629E1,1.414408722E0,-2.314187622E-1,9.751471710E0,9.856231896E0
1.536032729E1,1.383273468E0,-2.553689575E-1,9.724677429E0,9.825884688E0
1.537035829E1,1.353335724E0,-2.625540161E-1,9.721683655E0,9.818940130E0
1.538039029E1,1.365909576E0,-2.710862732E-1,9.713301086E0,9.812615081E0
1.539042129E1,1.385967865E0,-2.739303589E-1,9.738748169E0,9.840689034E0
1.540045329E1,1.392404480E0,-2.880010986E-1,9.764195251E0,9.867180133E0
1.541048429E1,1.405427399E0,-2.941383362E-1,9.783804474E0,9.888608270E0
1.542051529E1,1.398990784E0,-2.845582581E-1,9.760003967E0,9.863864661E0
1.543054729E1,1.407672729E0,-2.842588806E-1,9.780810699E0,9.885676687E0
1.544057829E1,1.411564636E0,-2.719844055E-1,9.804910583E0,9.909730662E0
1.545060929E1,1.420396271E0,-2.372566223E-1,9.795480194E0,9.900770096E0
1.546064129E1,1.405277710E0,-2.326162720E-1,9.762698364E0,9.866062797E0
1.547067229E1,1.388961639E0,-2.242337036E-1,9.765392761E0,9.866224758E0
1.548070329E1,1.407672729E0,-2.049238586E-1,9.773925018E0,9.876899643E0
1.549073529E1,1.416055298E0,-2.050735474E-1,9.773775330E0,9.877952822E0
1.550076629E1,1.431473236E0,-2.164498901E-1,9.784103851E0,9.890634679E0
1.551079829E1,1.460363159E0,-2.264790344E-1,9.760602722E0,9.871844752E0
1.552082929E1,1.475631409E0,-2.335144043E-1,9.769284668E0,9.882860920E0
1.553086029E1,1.482367401E0,-2.508782959E-1,9.767937469E0,9.882962888E0
1.554089229E1,1.485810242E0,-2.514770508E-1,9.744735718E0,9.860565247E0
1.555092329E1,1.497036896E0,-2.698887634E-1,9.741143188E0,9.859200273E0
1.556095429E1,1.499880981E0,-2.688409424E-1,9.742191010E0,9.860639131E0
1.557098629E1,1.480870514E0,-2.692900085E-1,9.744136963E0,9.859700794E0
1.558101729E1,1.489103394E0,-2.733316040E-1,9.737550659E0,9.854543720E0
1.559104829E1,1.469643860E0,-2.751278687E-1,9.740245056E0,9.854335197E0
1.560108029E1,1.459165649E0,-2.644999695E-1,9.715546417E0,9.828070350E0
1.561111129E1,1.421144714E0,-2.570155334E-1,9.713600464E0,9.820373886E0
1.562114229E1,1.414857788E0,-2.528242493E-1,9.735604706E0,9.841125019E0
1.563117429E1,1.432521057E0,-2.603086853E-1,9.768685913E0,9.876593626E0
1.564120529E1,1.438807983E0,-2.430944824E-1,9.785900116E0,9.894094421E0
1.565123729E1,1.432970123E0,-2.348616028E-1,9.765392761E0,9.872763500E0
1.566126829E1,1.423240356E0,-2.466870117E-1,9.746681671E0,9.853135095E0
1.567129929E1,1.386716309E0,-2.444416809E-1,9.734107819E0,9.835425201E0
1.568133129E1,1.404978333E0,-2.628533936E-1,9.764344940E0,9.868408592E0
1.569136229E1,1.407972107E0,-2.872526550E-1,9.810000000E0,9.914686054E0
1.570139329E1,1.401086426E0,-2.697390747E-1,9.796528015E0,9.899887044E0
1.571142529E1,1.395398254E0,-2.490820312E-1,9.754166107E0,9.856618822E0
1.572145629E1,1.420545959E0,-2.447410583E-1,9.742041321E0,9.848107336E0
1.573148729E1,1.444496155E0,-2.900967407E-1,9.775870972E0,9.886272225E0
1.574151929E1,1.490151215E0,-3.161425781E-1,9.809700623E0,9.927271683E0
1.575155029E1,1.502725067E0,-3.121009827E-1,9.810449066E0,9.929778473E0
1.576158229E1,1.516047363E0,-3.360511780E-1,9.804910583E0,9.927114463E0
1.577161329E1,1.495540009E0,-3.103047180E-1,9.782906342E0,9.901423404E0
1.578164429E1,1.467248840E0,-2.842588806E-1,9.746831360E0,9.860747630E0
1.579167629E1,1.465153198E0,-2.797682190E-1,9.744286652E0,9.857792172E0
1.580170729E1,1.447190552E0,-2.514770508E-1,9.750423889E0,9.860444575E0
1.581173829E1,1.432221680E0,-2.019300842E-1,9.720037079E0,9.827062405E0
1.582177029E1,1.422342224E0,-1.504371643E-1,9.691596222E0,9.796567055E0
1.583180129E1,1.422192535E0,-1.411564636E-1,9.679920502E0,9.784856548E0
1.584183229E1,1.460812225E0,-1.663041687E-1,9.708810425E0,9.819502498E0
1.585186429E1,1.473685455E0,-1.757345581E-1,9.766590271E0,9.878710289E0
1.586189529E1,1.475781097E0,-2.174977112E-1,9.811945953E0,9.924692363E0
1.587192729E1,1.481768646E0,-2.420466614E-1,9.843230896E0,9.957078858E0
1.588195829E1,1.466201019E0,-2.668949890E-1,9.845476227E0,9.957629261E0
1.589198929E1,1.457070007E0,-2.862048340E-1,9.828860779E0,9.940395889E0
1.590202129E1,1.448837128E0,-3.032693481E-1,9.797875214E0,9.909059492E0
1.591205229E1,1.466650085E0,-3.129991150E-1,9.755213928E0,9.869814066E0
1.592208329E1,1.485810242E0,-3.263214111E-1,9.722282410E0,9.840573814E0
1.593211529E1,1.495989075E0,-3.242257690E-1,9.722581787E0,9.842342316E0
1.594214629E1,1.492097168E0,-3.007246399E-1,9.703271942E0,9.821928306E0
1.595217729E1,1.486558685E0,-3.023712158E-1,9.711055756E0,9.828829481E0
1.596220929E1,1.491348724E0,-2.865042114E-1,9.717642059E0,9.835587063E0
1.597224029E1,1.483714600E0,-2.851570129E-1,9.727222137E0,9.843859713E0
1.598227129E1,1.474284210E0,-2.841091919E-1,9.755513306E0,9.870373439E0
1.599230329E1,1.474433899E0,-2.736309814E-1,9.767787781E0,9.882231902E0
1.600233429E1,1.471889191E0,-2.559677124E-1,9.766590271E0,9.880195483E0
1.601236629E1,1.489851837E0,-2.417472839E-1,9.761800232E0,9.877795504E0
1.602239729E1,1.473535767E0,-2.290237427E-1,9.747879181E0,9.861283286E0
1.603242829E1,1.467997284E0,-1.917512512E-1,9.789642334E0,9.900953570E0
1.604246029E1,1.449585571E0,-1.694476318E-1,9.728569336E0,9.837432193E0
1.605249129E1,1.461111603E0,-1.833686829E-1,9.722881165E0,9.833762725E0
1.606252229E1,1.473835144E0,-2.436932373E-1,9.734107819E0,9.848067397E0
1.607255429E1,1.461860046E0,-2.233355713E-1,9.764644318E0,9.875990696E0
1.608258529E1,1.471290436E0,-2.387535095E-1,9.760453033E0,9.873608368E0
1.609261629E1,1.479972382E0,-2.715353394E-1,9.793683929E0,9.908597005E0
1.610264829E1,1.508712616E0,-3.107537842E-1,9.819131012E0,9.939221071E0
1.611267929E1,1.553918610E0,-3.326083374E-1,9.847871246E0,9.975262374E0
1.612271129E1,1.565893707E0,-3.150947571E-1,9.824819183E0,9.953812325E0
1.613274229E1,1.571581879E0,-3.040177917E-1,9.780211945E0,9.910340161E0
1.614277329E1,1.533710632E0,-2.811154175E-1,9.751621399E0,9.875495638E0
1.615280529E1,1.482816467E0,-2.564167786E-1,9.716594238E0,9.832430922E0
1.616283629E1,1.471290436E0,-2.546205139E-1,9.720635834E0,9.834647333E0
1.617286729E1,1.477577362E0,-2.487826538E-1,9.754166107E0,9.868580654E0
1.618289929E1,1.498533783E0,-2.383044434E-1,9.742789764E0,9.860240611E0
1.619293029E1,1.508562927E0,-2.418969727E-1,9.719138947E0,9.838492675E0
1.620296129E1,1.491348724E0,-2.445913696E-1,9.720935211E0,9.837709456E0
1.621299329E1,1.474433899E0,-2.695893860E-1,9.736652527E0,9.851346923E0
1.622302429E1,1.469344482E0,-3.026705933E-1,9.745334473E0,9.860128127E0
1.623305529E1,1.463955688E0,-3.059637451E-1,9.750573578E0,9.864606691E0
1.624308729E1,1.467847595E0,-3.209326172E-1,9.755363617E0,9.870394805E0
1.625311829E1,1.465602264E0,-3.029699707E-1,9.757758636E0,9.871860737E0
1.626315029E1,1.489402771E0,-2.956352234E-1,9.759554901E0,9.876974874E0
1.627318129E1,1.477577362E0,-3.171903992E-1,9.763147430E0,9.879417612E0
1.628321229E1,1.473685455E0,-3.032693481E-1,9.759405212E0,9.874700563E0
1.629324429E1,1.494342499E0,-2.742297363E-1,9.781259766E0,9.898550604E0
1.630327529E1,1.486558685E0,-2.511776733E-1,9.776769104E0,9.892328394E0
1.631330629E1,1.474284210E0,-2.308200073E-1,9.752669220E0,9.866171939E0
1.632333829E1,1.477876740E0,-2.032772827E-1,9.732012177E0,9.845684451E0
1.633336929E1,1.454375610E0,-2.165995789E-1,9.735604706E0,9.846020657E0
1.634340029E1,1.458716583E0,-2.246827698E-1,9.741143188E0,9.852319881E0
1.635343229E1,1.493893433E0,-2.270777893E-1,9.760602722E0,9.876874375E0
1.636346329E1,1.522034912E0,-2.496807861E-1,9.776469727E0,9.897388094E0
1.637349529E1,1.519639893E0,-2.571652222E-1,9.785750427E0,9.906379297E0
1.638352629E1,1.533261566E0,-2.567161560E-1,9.788444824E0,9.911127398E0
1.639355729E1,1.526375885E0,-2.721340942E-1,9.767787781E0,9.890073733E0
1.640358929E1,1.505120087E0,-2.377056885E-1,9.752669220E0,9.870990193E0
1.641362029E1,1.473086700E0,-2.588117981E-1,9.704020386E0,9.818603751E0
1.642365129E1,1.487606506E0,-2.686912537E-1,9.711205444E0,9.828157472E0
1.643368329E1,1.507515106E0,-2.662962341E-1,9.723330231E0,9.843102471E0
1.644371429E1,1.504970398E0,-2.618055725E-1,9.738897858E0,9.857971878E0
1.645374529E1,1.500779114E0,-2.594105530E-1,9.741442566E0,9.859783722E0
1.646377729E1,1.498084717E0,-2.471360779E-1,9.724677429E0,9.842493849E0
1.647380829E1,1.485660553E0,-2.469863892E-1,9.731114044E0,9.846967558E0
1.648384029E1,1.481319580E0,-2.790197754E-1,9.772278442E0,9.887850408E0
1.649387129E1,1.480720825E0,-2.972817993E-1,9.796977081E0,9.912702485E0
1.650390229E1,1.474733276E0,-3.046165466E-1,9.808952179E0,9.923868818E0
1.651393429E1,1.464105377E0,-2.656974792E-1,9.759704590E0,9.872488713E0
1.652396529E1,1.457070007E0,-2.665956116E-1,9.714049530E0,9.826336270E0
1.653399629E1,1.467548218E0,-2.790197754E-1,9.762249298E0,9.875882804E0
1.654402829E1,1.497036896E0,-3.207829285E-1,9.785900116E0,9.904941304E0
1.655405929E1,1.521286469E0,-3.553610229E-1,9.784403229E0,9.908336920E0
1.656409029E1,1.562600555E0,-3.359014893E-1,9.794432373E0,9.923983868E0
1.657412229E1,1.530866547E0,-3.189866638E-1,9.770781555E0,9.895123904E0
1.658415329E1,1.487007751E0,-2.583627319E-1,9.746981049E0,9.863142649E0
1.659418529E1,1.485061798E0,-2.474354553E-1,9.732161865E0,9.847924016E0
1.660421629E1,1.481618958E0,-2.640509033E-1,9.731563110E0,9.847245208E0
1.661424729E1,1.461261292E0,-2.279759216E-1,9.721983032E0,9.833829959E0
1.662427929E1,1.465153198E0,-1.821711731E-1,9.715097351E0,9.826646263E0
1.663431029E1,1.470242615E0,-1.508862305E-1,9.687854004E0,9.799943633E0
1.664434129E1,1.492995300E0,-1.525328064E-1,9.702673187E0,9.818053178E0
1.665437329E1,1.494492188E0,-1.683998108E-1,9.723479919E0,9.839101948E0
1.666440429E1,1.507365417E0,-2.038760376E-1,9.776619415E0,9.894240907E0
1.667443529E1,1.491498413E0,-2.404000854E-1,9.825717316E0,9.941181041E0
