"Time (s)","Acceleration x (m/s^2)","Acceleration y (m/s^2)","Acceleration z (m/s^2)","Absolute acceleration (m/s^2)"
-8.949166513E-4,1.933978271E-1,-1.800755310E-1,9.066945190E0,9.070795169E0
9.137083311E-3,2.040257263E-1,-1.984872437E-1,8.985514526E0,8.990021968E0
1.916808332E-2,1.133143616E-1,-2.954855347E-1,9.013955383E0,9.019509050E0
2.920008334E-2,1.309776306E-1,-3.369493103E-1,9.336833954E0,9.343829957E0
3.923108336E-2,2.146536255E-1,-2.992277527E-1,9.736652527E0,9.743614106E0
4.926208331E-2,3.164419556E-1,-2.231858826E-1,9.947563934E0,9.955097974E0
5.929408333E-2,3.900888062E-1,-8.322692871E-2,1.028271698E1,1.029045016E1
6.932508334E-2,4.565505981E-1,-8.083190918E-3,1.048794022E1,1.049787568E1
7.935708330E-2,3.564088440E-1,-5.538482666E-3,1.030756531E1,1.031372680E1
8.938808332E-2,1.939965820E-1,2.694396973E-3,1.006836273E1,1.007023188E1
9.941908333E-2,1.149609375E-1,3.652404785E-2,9.785151672E0,9.785895119E0
1.094510833E-1,7.155120850E-2,4.954696655E-2,9.564809875E0,9.565205823E0
1.194820833E-1,3.038681030E-2,3.173400879E-2,9.504485321E0,9.504586873E0
1.295140833E-1,1.526824951E-2,1.616638184E-2,9.559271393E0,9.559297256E0
1.395450833E-1,4.460723877E-2,-4.340972900E-3,9.633367310E0,9.633471564E0
1.495770834E-1,8.098159790E-2,-1.481918335E-2,9.792636108E0,9.792982160E0
1.596080833E-1,1.082249451E-1,-3.068618774E-2,9.944420471E0,9.945056701E0
1.696390833E-1,1.245410156E-1,-4.221221924E-2,1.004082001E1,1.004168107E1
1.796710833E-1,1.565744019E-1,-6.735992432E-2,1.007150620E1,1.007294842E1
1.897020834E-1,1.673519897E-1,-7.649093628E-2,1.002794678E1,1.002963479E1
1.997340833E-1,1.643582153E-1,-8.412506104E-2,9.968220978E0,9.969930798E0
2.097650833E-1,1.445993042E-1,-7.649093628E-2,9.888436890E0,9.889789884E0
2.197960833E-1,1.375639343E-1,-5.598358154E-2,9.846524048E0,9.847644075E0
2.298280833E-1,1.131646729E-1,-5.837860107E-2,9.776918793E0,9.777747971E0
2.398590833E-1,1.086740112E-1,-6.960525513E-2,9.750423889E0,9.751277914E0
2.498910833E-1,9.774673462E-2,-5.807922363E-2,9.779313812E0,9.779974758E0
2.599220834E-1,9.924362183E-2,-6.511459351E-2,9.866133270E0,9.866847263E0
2.699540833E-1,1.345701599E-1,-7.274871826E-2,9.904004517E0,9.905185862E0
2.799850833E-1,1.396595764E-1,-6.107299805E-2,9.888436890E0,9.889611662E0
2.900160833E-1,1.297801208E-1,-6.152206421E-2,9.851014709E0,9.852061645E0
3.000480834E-1,1.115180969E-1,-7.080276489E-2,9.819131012E0,9.820019509E0
3.100790833E-1,8.592132568E-2,-6.062393188E-2,9.812544708E0,9.813108141E0
3.201110833E-1,9.325607300E-2,-5.164260864E-2,9.819430389E0,9.820009003E0
3.301420833E-1,1.076261902E-1,-4.924758911E-2,9.820777588E0,9.821490781E0
3.401730834E-1,1.121168518E-1,-4.745132446E-2,9.837243347E0,9.837996670E0
3.502050833E-1,1.288819885E-1,-5.822891235E-2,9.861193542E0,9.862207626E0
3.602360833E-1,1.103205872E-1,-4.625381470E-2,9.860445099E0,9.861170701E0
3.702680834E-1,1.034349060E-1,-5.703140259E-2,9.867330780E0,9.868037702E0
3.802990833E-1,1.043330383E-1,-5.658233643E-2,9.870773621E0,9.871487163E0
3.903310833E-1,9.849517822E-2,-5.239105225E-2,9.854307861E0,9.854939348E0
4.003620833E-1,1.044827271E-1,-6.212081909E-2,9.851613464E0,9.852363345E0
4.103930834E-1,7.858657837E-2,-3.667373657E-2,9.851164398E0,9.851546113E0
4.204250833E-1,8.846603394E-2,-4.206253052E-2,9.845176849E0,9.845664157E0
4.304560833E-1,8.367599487E-2,-4.101470947E-2,9.855804749E0,9.856245285E0
4.404880833E-1,8.547225952E-2,-3.382965088E-2,9.872120819E0,9.872548780E0
4.505190834E-1,9.909393311E-2,-4.999603271E-2,9.875114594E0,9.875738324E0
4.605508333E-1,1.049317932E-1,-4.445755005E-2,9.874066772E0,9.874724390E0
4.705828333E-1,9.520202637E-2,-5.508544922E-2,9.873018951E0,9.873631604E0
4.806138334E-1,1.032852173E-1,-5.403762817E-2,9.858948212E0,9.859637303E0
4.906458333E-1,1.055305481E-1,-6.496490479E-2,9.844129028E0,9.844909012E0
5.006768333E-1,1.161584473E-1,-6.646179199E-2,9.839189301E0,9.840099392E0
5.107078333E-1,1.127156067E-1,-7.005432129E-2,9.859846344E0,9.860739442E0
5.207398334E-1,1.197509766E-1,-6.840774536E-2,9.865235138E0,9.866199078E0
5.307708333E-1,1.115180969E-1,-6.691085815E-2,9.859996033E0,9.860853671E0
5.408028333E-1,1.146615601E-1,-6.451583862E-2,9.864935760E0,9.865813049E0
5.508338333E-1,1.007405090E-1,-6.526428223E-2,9.865684204E0,9.866414389E0
5.608658333E-1,8.577163696E-2,-6.451583862E-2,9.858648834E0,9.859233028E0
5.708968333E-1,9.759704590E-2,-6.586303711E-2,9.900861053E0,9.901561126E0
5.809278333E-1,8.801696777E-2,-8.217910767E-2,9.955647125E0,9.956375348E0
5.909598334E-1,8.786727905E-2,-7.050338745E-2,9.908345490E0,9.908985908E0
6.009908333E-1,6.900650024E-2,-5.119354248E-2,9.808652802E0,9.809029129E0
6.110228333E-1,2.409988403E-2,-5.224136353E-2,9.777816925E0,9.777986182E0
6.210538333E-1,3.592529297E-3,-3.607498169E-2,9.788444824E0,9.788511960E0
6.310848334E-1,3.293151855E-3,-2.709365845E-2,9.843081207E0,9.843119047E0
6.411168333E-1,6.825805664E-2,-2.948867798E-2,9.869875488E0,9.870155566E0
6.511478333E-1,7.963439941E-2,-3.248245239E-2,9.819729767E0,9.820106386E0
6.611798333E-1,7.559280396E-2,-3.562591553E-2,9.852960663E0,9.853315041E0
6.712108334E-1,7.723937988E-2,-5.224136353E-2,9.916728058E0,9.917166453E0
6.812418333E-1,1.041833496E-1,-7.379653931E-2,1.002136047E1,1.002217371E1
6.912738333E-1,1.441502380E-1,-9.699829102E-2,1.001222946E1,1.001373690E1
7.013048333E-1,1.437011719E-1,-8.457412720E-2,9.926757202E0,9.928157501E0
7.113368333E-1,8.337661743E-2,-8.696914673E-2,9.838141479E0,9.838879157E0
7.213678333E-1,4.176315308E-2,-9.175918579E-2,9.794731750E0,9.795250582E0
7.313998333E-1,3.203338623E-2,-8.637039185E-2,9.740843811E0,9.741279389E0
7.414308334E-1,6.795867920E-2,-1.089733887E-1,9.726473694E0,9.727321527E0
7.514618333E-1,1.052311707E-1,-1.303788757E-1,9.773925018E0,9.775360991E0
7.614938333E-1,1.483415222E-1,-1.237925720E-1,9.831106110E0,9.833004482E0
7.715248333E-1,1.803749084E-1,-1.142124939E-1,9.859397278E0,9.861708487E0
7.815568334E-1,1.817221069E-1,-9.101074219E-2,9.908495178E0,9.910579326E0
7.915878333E-1,1.709445190E-1,-7.708969116E-2,9.900411987E0,9.902187757E0
8.016188333E-1,1.275347900E-1,-6.436614990E-2,9.904453583E0,9.905483779E0
8.116508333E-1,8.068222046E-2,-5.104385376E-2,9.882000275E0,9.882461461E0
8.216818334E-1,4.655319214E-2,-3.487747192E-2,9.875713348E0,9.875884658E0
8.317138333E-1,3.981719971E-2,-1.047821045E-2,9.869875488E0,9.869961365E0
8.417448333E-1,2.439926147E-2,1.287322998E-2,9.886341248E0,9.886379737E0
8.517768334E-1,3.248245239E-2,7.783813477E-3,9.895621948E0,9.895678321E0
8.618078333E-1,5.957611084E-2,5.239105225E-3,9.917027435E0,9.917207768E0
8.718388333E-1,7.185058594E-2,-2.155517578E-2,9.914482727E0,9.914766506E0
8.818708333E-1,9.759704590E-2,-8.008346558E-2,9.907896423E0,9.908700726E0
8.919018334E-1,1.095721436E-1,-9.086105347E-2,9.875713348E0,9.876739134E0
9.019338333E-1,1.133143616E-1,-1.221459961E-1,9.865534515E0,9.866941323E0
9.119648333E-1,1.225950623E-1,-1.368154907E-1,9.869725800E0,9.871435326E0
9.219958333E-1,1.279838562E-1,-1.416055298E-1,9.877659302E0,9.879503291E0
9.320278334E-1,1.377136230E-1,-1.540296936E-1,9.880054321E0,9.882214508E0
9.420588333E-1,1.478924561E-1,-1.381626892E-1,9.871072998E0,9.873147585E0
9.520908333E-1,1.538800049E-1,-1.438508606E-1,9.894574127E0,9.896816119E0
9.621218333E-1,1.582209778E-1,-1.254391479E-1,9.930948486E0,9.933000891E0
9.721528334E-1,1.610650635E-1,-1.098715210E-1,9.973759460E0,9.975664964E0
9.821848333E-1,1.583706665E-1,-9.490264893E-2,9.957144012E0,9.958855590E0
9.922158333E-1,1.498384094E-1,-4.909790039E-2,9.849966888E0,9.851228850E0
1.002247833E0,1.034349060E-1,-3.457809448E-2,9.772278442E0,9.772887003E0
1.012278833E0,4.775070190E-2,1.077758789E-2,9.782606964E0,9.782729440E0
1.022310833E0,2.933898926E-2,1.017883301E-2,9.821076965E0,9.821126063E0
1.032341833E0,4.355941772E-2,1.766326904E-2,9.889035645E0,9.889147354E0
1.042372833E0,8.412506104E-2,-7.484436035E-4,9.927056580E0,9.927413053E0
1.052404833E0,1.100212097E-1,-5.658233643E-2,9.916877747E0,9.917649443E0
1.062435833E0,1.257385254E-1,-6.945556641E-2,9.913135529E0,9.914176227E0
1.072467833E0,1.203497314E-1,-8.726852417E-2,9.935439148E0,9.936551259E0
1.082498833E0,1.405577087E-1,-1.133143616E-1,9.912985840E0,9.914629841E0
1.092529833E0,1.511856079E-1,-1.149609375E-1,9.904752960E0,9.906573793E0
1.102561833E0,1.341210938E-1,-1.110690308E-1,9.882000275E0,9.883534501E0
1.112592833E0,1.236428833E-1,-1.071771240E-1,9.851763153E0,9.853121928E0
1.122624833E0,1.323248291E-1,-1.083746338E-1,9.862690430E0,9.864173429E0
1.132655833E0,1.438508606E-1,-9.774673462E-2,9.894873505E0,9.896401829E0
1.142686833E0,1.695973206E-1,-1.052311707E-1,9.931397552E0,9.933402951E0
1.152718833E0,1.688488770E-1,-1.112187195E-1,9.918224945E0,9.920285561E0
1.162749833E0,1.595681763E-1,-1.098715210E-1,9.880653076E0,9.882552250E0
1.172781833E0,1.261875916E-1,-1.022373962E-1,9.851164398E0,9.852503022E0
1.182812833E0,1.193019104E-1,-1.079255676E-1,9.847272491E0,9.848586518E0
1.192844833E0,1.172062683E-1,-8.831634521E-2,9.851014709E0,9.852107789E0
1.202875833E0,1.073268127E-1,-9.624984741E-2,9.835596771E0,9.836653238E0
1.212906833E0,9.669891357E-2,-8.876541138E-2,9.823921051E0,9.824797952E0
1.222938833E0,1.016386414E-1,-6.990463257E-2,9.802665253E0,9.803441392E0
1.232969833E0,8.113128662E-2,-8.128097534E-2,9.813442841E0,9.814114798E0
1.243001833E0,9.984237671E-2,-8.247848511E-2,9.838590546E0,9.839442826E0
1.253032833E0,1.278341675E-1,-8.068222046E-2,9.839638367E0,9.840799479E0
1.263063833E0,1.425036621E-1,-7.409591675E-2,9.842632141E0,9.843942552E0
1.273095833E0,1.450483704E-1,-7.259902954E-2,9.859247589E0,9.860581761E0
1.283126833E0,1.471440125E-1,-6.616241455E-2,9.892927551E0,9.894242991E0
1.293158833E0,1.522334290E-1,-6.676116943E-2,9.871522064E0,9.872921550E0
1.303189833E0,1.368154907E-1,-6.765930176E-2,9.854457550E0,9.855639496E0
1.313221833E0,1.288819885E-1,-5.837860107E-2,9.848470001E0,9.849486281E0
1.323252833E0,1.231938171E-1,-7.185058594E-2,9.842781830E0,9.843814981E0
1.333283833E0,1.169068909E-1,-8.711883545E-2,9.845925293E0,9.847004711E0
1.343315833E0,1.389111328E-1,-7.963439941E-2,9.877958679E0,9.879256329E0
1.353346833E0,1.520837402E-1,-7.619155884E-2,9.884095917E0,9.885559504E0
1.363378833E0,1.487905884E-1,-9.041198730E-2,9.865384827E0,9.866921037E0
1.373409833E0,1.549278259E-1,-8.996292114E-2,9.871072998E0,9.872698623E0
1.383440833E0,1.505868530E-1,-1.049317932E-1,9.862989807E0,9.864697411E0
1.393472833E0,1.621128845E-1,-1.011895752E-1,9.872569885E0,9.874419277E0
1.403503833E0,1.685494995E-1,-9.999206543E-2,9.866732025E0,9.868678139E0
1.413535833E0,1.749861145E-1,-1.046324158E-1,9.858050079E0,9.860158186E0
1.423566833E0,1.764830017E-1,-9.729766846E-2,9.867031403E0,9.869089208E0
1.433597833E0,1.715432739E-1,-1.028361511E-1,9.883946228E0,9.885969624E0
1.443629833E0,1.772314453E-1,-6.945556641E-2,9.855355682E0,9.857193855E0
1.453663583E0,1.707948303E-1,-6.376739502E-2,9.829609222E0,9.831299742E0
1.463695583E0,1.463955688E-1,-6.316864014E-2,9.822723541E0,9.824017493E0
1.473726583E0,1.499880981E-1,-3.727249146E-2,9.837991791E0,9.839205666E0
1.483757583E0,1.387614441E-1,-3.023712158E-2,9.832004242E0,9.833029871E0
1.493789583E0,1.562750244E-1,-4.340972900E-2,9.837842102E0,9.839179006E0
1.503820583E0,1.543290710E-1,-4.580474854E-2,9.850415955E0,9.851731321E0
1.513852583E0,1.484912109E-1,-5.673202515E-2,9.858050079E0,9.859331596E0
1.523883583E0,1.425036621E-1,-6.960525513E-2,9.845775604E0,9.847052830E0
1.533915583E0,1.314266968E-1,-6.586303711E-2,9.880353699E0,9.881447269E0
1.543946583E0,1.342707825E-1,-7.439529419E-2,9.910740509E0,9.911929214E0
1.553977583E0,1.312770081E-1,-6.601272583E-2,9.915680237E0,9.916768924E0
1.564009583E0,1.353186035E-1,-5.044509888E-2,9.904303894E0,9.905356705E0
1.574040583E0,1.257385254E-1,-4.640350342E-2,9.851613464E0,9.852525124E0
1.584072583E0,1.094224548E-1,-3.323089600E-2,9.818532257E0,9.819198198E0
1.594103583E0,1.050814819E-1,-3.457809448E-2,9.822573853E0,9.823196774E0
1.604134583E0,1.255888367E-1,-4.475692749E-2,9.848470001E0,9.849372422E0
1.614166583E0,1.284329224E-1,-5.493576050E-2,9.842632141E0,9.843623338E0
1.624197583E0,1.483415222E-1,-4.251159668E-2,9.801168365E0,9.802383066E0
1.634229583E0,1.516346741E-1,-4.236190796E-2,9.810449066E0,9.811712312E0
1.644260583E0,1.535806274E-1,-6.197113037E-2,9.834548950E0,9.835943294E0
1.654291583E0,1.769320679E-1,-5.523513794E-2,9.953252106E0,9.954977818E0
1.664323583E0,2.252815247E-1,-5.643264771E-2,9.959239655E0,9.961947144E0
1.674354583E0,2.445913696E-1,-6.331832886E-2,9.867779846E0,9.871013790E0
1.684386583E0,1.981878662E-1,-7.604187012E-2,9.810898132E0,9.813194330E0
1.694417583E0,1.381626892E-1,-7.783813477E-2,9.784403229E0,9.785688236E0
1.704449583E0,1.019380188E-1,-7.020401001E-2,9.757758636E0,9.758543619E0
1.714480583E0,1.091230774E-1,-8.023315430E-2,9.754615173E0,9.755555463E0
1.724511583E0,1.356179810E-1,-6.496490479E-2,9.792785797E0,9.793940287E0
1.734543583E0,1.718426514E-1,-5.403762817E-2,9.837991791E0,9.839640869E0
1.744574583E0,2.047741699E-1,-3.667373657E-2,9.884245605E0,9.886434575E0
1.754606583E0,2.222877502E-1,-8.083190918E-3,9.884844360E0,9.887346722E0
1.764637583E0,2.083666992E-1,9.879455566E-3,9.872569885E0,9.874773437E0
1.774668583E0,1.802252197E-1,1.916015625E-2,9.859247589E0,9.860913308E0
1.784700583E0,1.655557251E-1,2.903961182E-2,9.835896149E0,9.837332212E0
1.794731583E0,1.353186035E-1,9.729766846E-3,9.841734009E0,9.842669053E0
1.804763583E0,1.215472412E-1,8.083190918E-3,9.876611481E0,9.877362675E0
1.814794583E0,1.381626892E-1,-1.990859985E-2,9.918823700E0,9.919805889E0
1.824825583E0,1.348695374E-1,-4.311035156E-2,9.938582611E0,9.939591169E0
1.834857583E0,1.347198486E-1,-5.209167480E-2,9.931547241E0,9.932597525E0
1.844888583E0,1.555265808E-1,-6.421646118E-2,9.899214478E0,9.900644400E0
1.854920583E0,1.682501221E-1,-4.819976807E-2,9.869875488E0,9.871427125E0
1.864951583E0,1.618135071E-1,-5.029541016E-2,9.832902374E0,9.834362325E0
1.874983583E0,1.689985657E-1,-4.565505981E-2,9.802216187E0,9.803779224E0
1.885014583E0,1.612147522E-1,-4.879852295E-2,9.807455292E0,9.808901610E0
1.895045583E0,1.784289551E-1,-6.017486572E-2,9.823322296E0,9.825126912E0
1.905077583E0,1.851649475E-1,-5.508544922E-2,9.853559418E0,9.855452991E0
1.915108583E0,1.941462708E-1,-6.735992432E-2,9.869875488E0,9.872014601E0
1.925140583E0,1.817221069E-1,-6.421646118E-2,9.904453583E0,9.906328657E0
1.935171583E0,1.874102783E-1,-6.541397095E-2,9.926158447E0,9.928142984E0
1.945202583E0,2.028282166E-1,-7.185058594E-2,9.908495178E0,9.910831372E0
1.955234583E0,1.736389160E-1,-4.460723877E-2,9.884844360E0,9.886469962E0
1.965265583E0,1.675016785E-1,-2.095642090E-2,9.897268524E0,9.898708008E0
1.975297583E0,1.417552185E-1,-5.987548828E-4,9.810748444E0,9.811772517E0
1.985328583E0,1.252894592E-1,3.592529297E-3,9.799970856E0,9.800772374E0
1.995359583E0,9.265731812E-2,6.885681152E-3,9.804162140E0,9.804602392E0
2.005391583E0,1.187031555E-1,8.532257080E-3,9.778715057E0,9.779439218E0
2.015422583E0,1.368154907E-1,7.035369873E-3,9.808952179E0,9.809908808E0
2.025454583E0,1.737886047E-1,-6.436614990E-3,9.854008484E0,9.855542964E0
2.035485583E0,1.983375549E-1,-2.305206299E-2,9.891430664E0,9.893445798E0
2.045516583E0,2.118095398E-1,-4.640350342E-2,9.898166656E0,9.900541386E0
2.055548583E0,2.005828857E-1,-5.298980713E-2,9.914632416E0,9.916802779E0
2.065579583E0,1.941462708E-1,-5.987548828E-2,9.891280975E0,9.893367333E0
2.075611583E0,1.817221069E-1,-5.822891235E-2,9.857451324E0,9.859298157E0
2.085642583E0,1.547781372E-1,-5.104385376E-2,9.826166382E0,9.827517871E0
2.095673583E0,1.525328064E-1,-2.200424194E-2,9.843530273E0,9.844736598E0
2.105705583E0,1.419049072E-1,-1.122665405E-2,9.852511597E0,9.853539862E0
2.115736583E0,1.610650635E-1,-1.856140137E-2,9.846673737E0,9.848008436E0
2.125768583E0,1.631607056E-1,-1.856140137E-2,9.864187317E0,9.865554083E0
2.135799583E0,1.541793823E-1,-2.739303589E-2,9.885293427E0,9.886533659E0
2.145831583E0,1.562750244E-1,-2.544708252E-2,9.857151947E0,9.858423502E0
2.155862583E0,1.303788757E-1,-3.128494263E-2,9.841584320E0,9.842497616E0
2.165893583E0,1.157093811E-1,-5.688171387E-2,9.817933502E0,9.818780089E0
2.175925583E0,1.127156067E-1,-6.077362061E-2,9.792336731E0,9.793173995E0
2.185956583E0,1.115180969E-1,-4.939727783E-2,9.790540466E0,9.791300169E0
2.195988583E0,1.234931946E-1,-4.221221924E-2,9.794432373E0,9.795301831E0
2.206019583E0,1.453477478E-1,-5.343887329E-2,9.814490662E0,9.815712334E0
2.216050583E0,1.564247131E-1,-5.358856201E-2,9.832902374E0,9.834292528E0
2.226082583E0,1.655557251E-1,-4.236190796E-2,9.868228912E0,9.869708461E0
2.236113583E0,1.658551025E-1,-4.236190796E-2,9.888137512E0,9.889619098E0
2.246145583E0,1.781295776E-1,-4.191284180E-2,9.893825684E0,9.895517849E0
2.256176583E0,1.648072815E-1,-1.496887207E-2,9.883946228E0,9.885331484E0
2.266207583E0,1.426533508E-1,-2.185455322E-2,9.853409729E0,9.854466545E0
2.276239583E0,1.318757629E-1,-1.227447510E-2,9.836644592E0,9.837536212E0
2.286270583E0,1.207987976E-1,-4.640350342E-3,9.825717316E0,9.826460942E0
2.296302583E0,1.242416382E-1,-1.347198486E-2,9.816586304E0,9.817381735E0
2.306333583E0,1.148112488E-1,-3.742218018E-3,9.813742218E0,9.814414499E0
2.316364583E0,1.336720276E-1,-5.538482666E-3,9.839189301E0,9.840098830E0
2.326396583E0,1.586700439E-1,-1.481918335E-2,9.848320312E0,9.849609574E0
2.336427583E0,1.661544800E-1,-2.529739380E-2,9.851613464E0,9.853046997E0
2.346459583E0,1.797761536E-1,-3.083587646E-2,9.867929535E0,9.869615171E0
2.356490583E0,1.986369324E-1,-4.475692749E-2,9.882599030E0,9.884696424E0
2.366521583E0,1.839674377E-1,-6.182144165E-2,9.865235138E0,9.867143976E0
2.376553583E0,1.715432739E-1,-6.182144165E-2,9.854607239E0,9.856294071E0
2.386584583E0,1.456471252E-1,-5.164260864E-2,9.842332764E0,9.843545818E0
2.396616583E0,1.425036621E-1,-3.951782227E-2,9.864636383E0,9.865744773E0
2.406647583E0,1.351689148E-1,-3.727249146E-2,9.876910858E0,9.877906052E0
2.416679583E0,1.212478638E-1,-1.945953369E-3,9.840835876E0,9.841582981E0
2.426710583E0,8.801696777E-2,2.005828857E-2,9.816436615E0,9.816851692E0
2.436741583E0,8.771759033E-2,1.511856079E-2,9.794582062E0,9.794986509E0
2.446773583E0,1.028361511E-1,1.197509766E-2,9.830657043E0,9.831202194E0
2.456801875E0,1.228944397E-1,-1.092727661E-2,9.859097900E0,9.859869870E0
2.466833875E0,1.273851013E-1,-1.511856079E-2,9.804012451E0,9.804851640E0
2.476864875E0,1.255888367E-1,-2.305206299E-2,9.797276459E0,9.798108489E0
2.486895875E0,9.340576172E-2,-2.245330811E-2,9.874515839E0,9.874983131E0
2.496927875E0,1.504371643E-1,-2.305206299E-2,9.954898682E0,9.956061998E0
2.506958875E0,2.142045593E-1,-3.502716064E-2,9.949060822E0,9.951428125E0
2.516990875E0,2.097138977E-1,-4.131408691E-2,9.902807007E0,9.905113497E0
2.527021875E0,1.541793823E-1,-4.041595459E-2,9.843530273E0,9.844820617E0
2.537052875E0,9.639953613E-2,-5.134323120E-2,9.821226654E0,9.821833942E0
2.547084875E0,8.592132568E-2,-4.326004028E-2,9.779463501E0,9.779936619E0
2.557115875E0,1.070274353E-1,-3.113525391E-2,9.786498871E0,9.787133616E0
2.567147875E0,1.179547119E-1,-4.655319214E-2,9.809700623E0,9.810520211E0
2.577178875E0,1.275347900E-1,-6.256988525E-2,9.866432648E0,9.867455260E0
2.587209875E0,1.553768921E-1,-4.430786133E-2,9.917476501E0,9.918792533E0
2.597241875E0,1.742376709E-1,-1.212478638E-2,9.894723816E0,9.896265213E0
2.607272875E0,1.556762695E-1,1.197509766E-2,9.890233154E0,9.891465531E0
2.617304875E0,1.484912109E-1,3.427871704E-2,9.856553192E0,9.857731255E0
2.627335875E0,1.297801208E-1,3.367996216E-2,9.826765137E0,9.827679801E0
2.637367875E0,1.248403931E-1,4.355941772E-2,9.826166382E0,9.827055933E0
2.647398875E0,1.224453735E-1,2.514770508E-2,9.849368134E0,9.850161314E0
2.657429875E0,1.471440125E-1,1.257385254E-2,9.883646851E0,9.884750099E0
2.667461875E0,1.631607056E-1,-1.945953369E-2,9.927056580E0,9.928416411E0
2.677492875E0,1.737886047E-1,-4.640350342E-2,9.943672028E0,9.945298847E0
2.687524875E0,1.737886047E-1,-6.301895142E-2,9.941127319E0,9.942845983E0
2.697555875E0,1.651066589E-1,-7.125183105E-2,9.914033661E0,9.915664398E0
2.707586875E0,1.435514832E-1,-5.209167480E-2,9.871821442E0,9.873002540E0
2.717618875E0,1.327738953E-1,-5.089416504E-2,9.830357666E0,9.831386014E0
2.727649875E0,1.375639343E-1,-5.089416504E-2,9.826615448E0,9.827710070E0
2.737681875E0,1.583706665E-1,-4.056564331E-2,9.811945953E0,9.813307813E0
2.747712875E0,1.661544800E-1,-3.637435913E-2,9.818382568E0,9.819855735E0
2.757743875E0,1.637594604E-1,-2.395019531E-2,9.847422180E0,9.848812841E0
2.767775875E0,1.663041687E-1,-2.320175171E-2,9.878707123E0,9.880134099E0
2.777806875E0,1.701960754E-1,-2.005828857E-2,9.896071014E0,9.897554777E0
2.787838875E0,1.716929626E-1,-1.631607056E-2,9.924212494E0,9.925710973E0
2.797869875E0,1.681004333E-1,-0.000000000E0,9.911189575E0,9.912615021E0
2.807900875E0,1.477427673E-1,2.395019531E-3,9.818532257E0,9.819644054E0
2.817932875E0,1.149609375E-1,1.137634277E-2,9.810149689E0,9.810829850E0
2.827963875E0,8.622070312E-2,3.173400879E-2,9.862391052E0,9.862818985E0
2.837995875E0,1.019380188E-1,3.981719971E-2,9.790241089E0,9.790852739E0
2.848026875E0,9.460327148E-2,2.679428101E-2,9.753267975E0,9.753763576E0
2.858057875E0,9.445358276E-2,3.442840576E-3,9.847272491E0,9.847726075E0
2.868089875E0,1.523831177E-1,-2.110610962E-2,9.931098175E0,9.932289617E0
2.878120875E0,2.055226135E-1,-3.053649902E-2,9.915979614E0,9.918156267E0
2.888152875E0,1.769320679E-1,-5.059478760E-2,9.883497162E0,9.885210212E0
2.898183875E0,1.351689148E-1,-6.137237549E-2,9.913434906E0,9.914546325E0
2.908215875E0,1.511856079E-1,-6.631210327E-2,9.899214478E0,9.900590975E0
2.918246875E0,1.676513672E-1,-6.152206421E-2,9.844727783E0,9.846347397E0
2.928277875E0,1.437011719E-1,-6.062393188E-2,9.833351440E0,9.834588239E0
2.938309875E0,1.338217163E-1,-2.933898926E-2,9.830207977E0,9.831162592E0
2.948340875E0,1.251397705E-1,-0.000000000E0,9.834099884E0,9.834896059E0
2.958372875E0,1.462458801E-1,1.107696533E-2,9.863588562E0,9.864678904E0
2.968403875E0,1.636097717E-1,1.047821045E-2,9.880353699E0,9.881713777E0
2.978434875E0,1.701960754E-1,-1.077758789E-2,9.901609497E0,9.903077981E0
2.988466875E0,1.633103943E-1,-1.736389160E-2,9.896969147E0,9.898331682E0
2.998497875E0,1.419049072E-1,-2.320175171E-2,9.896220703E0,9.897265255E0
3.008529875E0,1.242416382E-1,-3.757186890E-2,9.861343231E0,9.862197420E0
3.018560875E0,9.310638428E-2,-3.966751099E-2,9.795779572E0,9.796302350E0
3.028591875E0,7.903564453E-2,-5.688171387E-2,9.769883423E0,9.770368686E0
3.038623875E0,7.484436035E-2,-6.661148071E-2,9.796078949E0,9.796591323E0
3.048654875E0,9.610015869E-2,-7.469467163E-2,9.826016693E0,9.826770507E0
3.058686875E0,1.230441284E-1,-6.391708374E-2,9.834399261E0,9.835376662E0
3.068717875E0,1.432521057E-1,-5.688171387E-2,9.844877472E0,9.846083949E0
3.078748875E0,1.490899658E-1,-7.020401001E-2,9.852810974E0,9.854188983E0
3.088780875E0,1.272354126E-1,-6.227050781E-2,9.849218445E0,9.850237075E0
3.098811875E0,1.240919495E-1,-8.008346558E-2,9.867929535E0,9.869034678E0
3.108843875E0,1.113684082E-1,-7.753875732E-2,9.861792297E0,9.862725916E0
3.118874875E0,1.151106262E-1,-7.259902954E-2,9.866432648E0,9.867371193E0
3.128905875E0,1.005908203E-1,-7.020401001E-2,9.868677979E0,9.869440316E0
3.138937875E0,8.816665649E-2,-5.313949585E-2,9.858798523E0,9.859335955E0
3.148968875E0,8.966354370E-2,-3.697311401E-2,9.828561401E0,9.829039922E0
3.159000875E0,7.828720093E-2,-1.466949463E-2,9.810449066E0,9.810772394E0
3.169031875E0,8.292755127E-2,1.002914429E-2,9.815239105E0,9.815594544E0
3.179063875E0,9.834548950E-2,1.796264648E-2,9.817634125E0,9.818143119E0
3.189094875E0,1.103205872E-1,1.676513672E-2,9.833950195E0,9.834583273E0
3.199125875E0,1.082249451E-1,3.382965088E-2,9.829908600E0,9.830562556E0
3.209157875E0,8.666976929E-2,2.050735474E-2,9.833052063E0,9.833455398E0
3.219188875E0,8.607101440E-2,-1.122665405E-2,9.848320312E0,9.848702820E0
3.229220875E0,9.175918579E-2,-9.280700684E-3,9.872569885E0,9.873000659E0
3.239251875E0,8.187973022E-2,-4.580474854E-2,9.910590820E0,9.911034899E0
3.249282875E0,9.265731812E-2,-5.328918457E-2,9.927056580E0,9.927632016E0
3.259314875E0,1.002914429E-1,-5.209167480E-2,9.876012726E0,9.876659318E0
3.269345875E0,8.292755127E-2,-5.089416504E-2,9.828561401E0,9.829043006E0
3.279377875E0,5.284011841E-2,-5.673202515E-2,9.815688171E0,9.815994340E0
3.289408875E0,5.822891235E-2,-6.661148071E-2,9.821076965E0,9.821475472E0
3.299439875E0,7.634124756E-2,-6.526428223E-2,9.856104126E0,9.856615847E0
3.309471875E0,1.161584473E-1,-6.331832886E-2,9.828262024E0,9.829152375E0
3.319502875E0,1.197509766E-1,-5.807922363E-2,9.774074707E0,9.774980812E0
3.329534875E0,1.023870850E-1,-5.313949585E-2,9.855205994E0,9.855881092E0
3.339565875E0,9.729766846E-2,-4.415817261E-2,9.977950745E0,9.978522829E0
3.349596875E0,1.675016785E-1,-3.637435913E-2,1.001746857E1,1.001893489E1
3.359628875E0,2.044747925E-1,-2.679428101E-2,9.926607513E0,9.928749398E0
3.369659875E0,1.434017944E-1,-2.993774414E-4,9.852511597E0,9.853555142E0
3.379691875E0,7.244934082E-2,8.681945801E-3,9.806557159E0,9.806828621E0
3.389722875E0,3.936813354E-2,-2.395019531E-3,9.790989532E0,9.791068972E0
3.399753875E0,3.861968994E-2,-1.302291870E-2,9.739795990E0,9.739881262E0
3.409785875E0,5.897735596E-2,-1.212478638E-2,9.733808441E0,9.733994663E0
3.419816875E0,8.861572266E-2,-2.769241333E-2,9.786349182E0,9.786789562E0
3.429848875E0,1.197509766E-1,-3.308120728E-2,9.858199768E0,9.858982571E0
3.439879875E0,1.442999268E-1,-3.712280273E-2,9.895771637E0,9.896893293E0
3.449910875E0,1.559756470E-1,-1.302291870E-2,9.902657318E0,9.903894182E0
3.459942958E0,1.243913269E-1,-7.634124756E-3,9.914333038E0,9.915116292E0
3.469973958E0,9.220825195E-2,-1.481918335E-2,9.883197784E0,9.883639027E0
3.480005958E0,1.026864624E-1,-1.167572021E-2,9.878707123E0,9.879247707E0
3.490036958E0,7.394622803E-2,-2.484832764E-2,9.853409729E0,9.853718525E0
3.500068958E0,6.870712280E-2,-1.556762695E-2,9.861193542E0,9.861445183E0
3.510099958E0,8.996292114E-2,-2.724334717E-2,9.873917084E0,9.874364491E0
3.520130958E0,8.726852417E-2,-2.903961182E-2,9.879156189E0,9.879584308E0
3.530162958E0,1.146615601E-1,-3.083587646E-2,9.893226929E0,9.893939417E0
3.540193958E0,1.179547119E-1,-3.128494263E-2,9.896969147E0,9.897721473E0
3.550225958E0,1.296304321E-1,-3.637435913E-2,9.896669769E0,9.897585547E0
3.560256958E0,1.369651794E-1,-4.550537109E-2,9.895771637E0,9.896824061E0
3.570287958E0,1.345701599E-1,-4.745132446E-2,9.870923309E0,9.871954606E0
3.580319958E0,1.182540894E-1,-2.769241333E-2,9.847422180E0,9.848171124E0
3.590350958E0,1.110690308E-1,-2.978805542E-2,9.814640350E0,9.815313997E0
3.600382958E0,1.158590698E-1,-1.975891113E-2,9.824819183E0,9.825522160E0
3.610413958E0,1.172062683E-1,-2.080673218E-2,9.848170624E0,9.848890032E0
3.620444958E0,1.157093811E-1,-1.781295776E-2,9.860894165E0,9.861589106E0
3.630476958E0,1.311273193E-1,-5.987548828E-4,9.886940002E0,9.887809532E0
3.640507958E0,1.252894592E-1,-1.017883301E-2,9.908644867E0,9.909442172E0
3.650539958E0,1.213975525E-1,1.392105103E-2,9.924811249E0,9.925563434E0
3.660570958E0,1.251397705E-1,5.837860107E-3,9.858648834E0,9.859444755E0
3.670601958E0,9.086105347E-2,9.729766846E-3,9.838889923E0,9.839314271E0
3.680633958E0,6.167175293E-2,4.745132446E-2,9.823172607E0,9.823480804E0
3.690664958E0,5.523513794E-2,4.805007935E-2,9.758058014E0,9.758332641E0
3.700696958E0,4.580474854E-2,4.730163574E-2,9.803563385E0,9.803784502E0
3.710727958E0,5.703140259E-2,2.844085693E-3,9.884694672E0,9.884859606E0
3.720758958E0,1.146615601E-1,-4.191284180E-3,9.892628174E0,9.893293538E0
3.730790958E0,1.495390320E-1,-4.490661621E-4,9.862690430E0,9.863824037E0
3.740821958E0,1.306782532E-1,-2.664459229E-2,9.854307861E0,9.855210306E0
3.750853958E0,1.154100037E-1,-4.625381470E-2,9.864636383E0,9.865419903E0
3.760884958E0,1.206491089E-1,-6.032455444E-2,9.859247589E0,9.860170297E0
3.770915958E0,1.258882141E-1,-5.164260864E-2,9.852062531E0,9.853002127E0
3.780947958E0,1.272354126E-1,-4.041595459E-2,9.873917084E0,9.874819536E0
3.790978958E0,1.143621826E-1,-3.802093506E-2,9.894125061E0,9.894859020E0
3.801010958E0,1.098715210E-1,-6.885681152E-3,9.919422455E0,9.920033317E0
3.811041958E0,1.167572021E-1,1.796264648E-3,9.906848602E0,9.907536762E0
3.821072958E0,9.639953613E-2,4.490661621E-3,9.847871246E0,9.848344080E0
3.831104958E0,8.427474976E-2,8.831634521E-3,9.843230896E0,9.843595619E0
3.841135958E0,7.828720093E-2,8.382568359E-3,9.867480469E0,9.867794584E0
3.851167958E0,9.385482788E-2,1.496887207E-2,9.885892181E0,9.886349024E0
3.861198958E0,9.894424438E-2,2.095642090E-2,9.843829651E0,9.844349208E0
3.871230958E0,7.200027466E-2,3.203338623E-2,9.801318054E0,9.801634852E0
3.881261958E0,6.631210327E-2,1.002914429E-2,9.778116302E0,9.778346297E0
3.891292958E0,3.218307495E-2,3.592529297E-3,9.786947937E0,9.787001511E0
3.901324958E0,3.293151855E-2,7.334747314E-3,9.820178833E0,9.820236789E0
3.911355958E0,5.269042969E-2,-1.002914429E-2,9.851912842E0,9.852058846E0
3.921387958E0,8.217910767E-2,-1.287322998E-2,9.857601013E0,9.857951961E0
3.931418958E0,1.017883301E-1,-1.496887207E-2,9.883946228E0,9.884481674E0
3.941449958E0,7.394622803E-2,-2.155517578E-2,9.890682220E0,9.890982128E0
3.951481958E0,6.646179199E-2,-2.634521484E-2,9.882149963E0,9.882408570E0
3.961512958E0,5.688171387E-2,-2.784210205E-2,9.854307861E0,9.854511360E0
3.971544958E0,4.580474854E-2,-3.667373657E-2,9.840835876E0,9.841010811E0
3.981575958E0,4.370910645E-2,-4.400848389E-2,9.837692413E0,9.837887947E0
3.991606958E0,4.281097412E-2,-2.095642090E-2,9.846524048E0,9.846639415E0
4.001638958E0,5.748046875E-2,-5.538482666E-3,9.858050079E0,9.858219213E0
4.011669958E0,6.197113037E-2,-1.242416382E-2,9.866282959E0,9.866485403E0
4.021701958E0,7.229965210E-2,-9.280700684E-3,9.853260040E0,9.853529662E0
4.031732958E0,7.484436035E-2,-9.879455566E-3,9.861043854E0,9.861332829E0
4.041763958E0,7.155120850E-2,-7.484436035E-3,9.856852570E0,9.857115104E0
4.051795958E0,9.071136475E-2,-1.646575928E-2,9.851613464E0,9.852044840E0
4.061826958E0,9.475296021E-2,-1.317260742E-2,9.850865021E0,9.851329519E0
4.071858958E0,9.789642334E-2,-5.239105225E-3,9.874066772E0,9.874553447E0
4.081889958E0,8.861572266E-2,-1.916015625E-2,9.852810974E0,9.853228098E0
4.091920958E0,8.143066406E-2,-1.362167358E-2,9.862690430E0,9.863035994E0
4.101952958E0,7.993377686E-2,-1.751358032E-2,9.880802765E0,9.881141605E0
4.111983958E0,5.748046875E-2,-1.751358032E-2,9.855205994E0,9.855389181E0
4.122015958E0,4.610412598E-2,-1.811233521E-2,9.858050079E0,9.858174527E0
4.132046958E0,4.056564331E-2,-2.454895020E-2,9.887688446E0,9.887802133E0
4.142077958E0,1.721420288E-2,-2.529739380E-2,9.915081482E0,9.915128697E0
4.152109958E0,3.951782227E-2,-1.736389160E-2,9.855655060E0,9.855749582E0
4.162140958E0,1.526824951E-2,-1.646575928E-2,9.808952179E0,9.808977882E0
4.172172958E0,9.280700684E-3,-9.430389404E-3,9.783954163E0,9.783963109E0
4.182203958E0,-7.035369873E-3,-8.981323242E-3,9.808054047E0,9.808060682E0
4.192234958E0,1.032852173E-2,-1.047821045E-2,9.835746460E0,9.835757464E0
4.202266958E0,2.993774414E-2,-1.242416382E-2,9.840985565E0,9.841038945E0
4.212297958E0,3.966751099E-2,-6.586303711E-3,9.806108093E0,9.806190536E0
4.222329958E0,4.385879517E-2,3.293151855E-3,9.854607239E0,9.854705387E0
4.232360958E0,2.529739380E-2,-2.859054565E-2,9.926158447E0,9.926231858E0
4.242391958E0,5.358856201E-2,-4.790039063E-2,1.001387604E1,1.001413399E1
4.252423958E0,9.205856323E-2,-5.748046875E-2,1.000938538E1,1.000997375E1
4.262454958E0,7.753875732E-2,-2.694396973E-2,9.980495453E0,9.980833017E0
4.272486958E0,4.206253052E-2,-4.161346436E-2,9.879156189E0,9.879333375E0
4.282517958E0,1.466949463E-2,-4.685256958E-2,9.777517548E0,9.777640807E0
4.292548958E0,-1.901046753E-2,-5.463638306E-2,9.728120270E0,9.728292271E0
4.302580958E0,-2.544708252E-3,-7.993377686E-2,9.729617157E0,9.729945833E0
4.312611958E0,4.460723877E-2,-6.945556641E-2,9.788893890E0,9.789241926E0
4.322643958E0,1.097218323E-1,-7.903564453E-2,9.837991791E0,9.838921078E0
4.332674958E0,1.442999268E-1,-7.634124756E-2,9.880503387E0,9.881851934E0
4.342705958E0,1.411564636E-1,-7.604187012E-2,9.884694672E0,9.885994956E0
4.352737958E0,1.384620667E-1,-7.170089722E-2,9.889634399E0,9.890863527E0
4.362768958E0,8.741821289E-2,-5.463638306E-2,9.877958679E0,9.878496583E0
4.372800958E0,5.508544922E-2,-4.355941772E-2,9.882898407E0,9.883147917E0
4.382831958E0,5.523513794E-2,-2.754272461E-2,9.877958679E0,9.878151507E0
4.392863958E0,2.769241333E-2,2.844085693E-3,9.873018951E0,9.873058198E0
4.402894958E0,1.736389160E-2,1.257385254E-2,9.875863037E0,9.875886306E0
4.412925958E0,1.392105103E-2,9.580078125E-3,9.890233154E0,9.890247591E0
4.422957958E0,6.436614990E-3,5.688171387E-3,9.904752960E0,9.904756685E0
4.432988958E0,1.930984497E-2,9.580078125E-3,9.895771637E0,9.895795114E0
4.443020958E0,3.427871704E-2,-2.948867798E-2,9.888586578E0,9.888689960E0
4.453051958E0,6.316864014E-2,-6.451583862E-2,9.890083466E0,9.890495616E0
4.463082500E0,5.628295898E-2,-7.649093628E-2,9.893975372E0,9.894431126E0
4.473114500E0,9.056167603E-2,-1.113684082E-1,9.880653076E0,9.881695682E0
4.483145500E0,7.559280396E-2,-1.309776306E-1,9.878258057E0,9.879415552E0
4.493177500E0,8.457412720E-2,-1.297801208E-1,9.880503387E0,9.881717606E0
4.503208500E0,9.999206543E-2,-1.275347900E-1,9.853260040E0,9.854592683E0
4.513239500E0,9.280700684E-2,-1.101708984E-1,9.871222687E0,9.872273705E0
4.523271500E0,1.020877075E-1,-1.137634277E-1,9.885892181E0,9.887073796E0
4.533302500E0,9.520202637E-2,-9.355545044E-2,9.883197784E0,9.884099073E0
4.543334500E0,1.037342834E-1,-8.367599487E-2,9.906399536E0,9.907296011E0
4.553365500E0,7.903564453E-2,-7.110214233E-2,9.863438873E0,9.864011788E0
4.563396500E0,7.185058594E-2,-3.802093506E-2,9.804461517E0,9.804798506E0
4.573428500E0,2.679428101E-2,1.047821045E-3,9.805659027E0,9.805695691E0
4.583459500E0,1.766326904E-2,4.939727783E-3,9.815688171E0,9.815705307E0
4.593491500E0,7.783813477E-3,4.041595459E-3,9.866282959E0,9.866286857E0
4.603522500E0,3.248245239E-2,-2.290237427E-2,9.894424438E0,9.894504262E0
4.613553500E0,6.436614990E-2,-3.966751099E-2,9.867630157E0,9.867919813E0
4.623585500E0,6.376739502E-2,-4.206253052E-2,9.860295410E0,9.860591317E0
4.633616500E0,3.652404785E-2,-6.107299805E-2,9.856403503E0,9.856660385E0
4.643648500E0,3.936813354E-2,-8.562194824E-2,9.849817200E0,9.850268008E0
4.653679500E0,5.179229736E-2,-9.445358276E-2,9.848619690E0,9.849208786E0
4.663710500E0,5.763015747E-2,-9.116043091E-2,9.843230896E0,9.843821714E0
4.673742500E0,7.095245361E-2,-8.247848511E-2,9.865684204E0,9.866284091E0
4.683773500E0,8.143066406E-2,-6.855743408E-2,9.899064789E0,9.899637103E0
4.693805500E0,7.409591675E-2,-6.661148071E-2,9.936337280E0,9.936836813E0
4.703836500E0,7.948471069E-2,-6.227050781E-2,9.934990082E0,9.935503176E0
4.713867500E0,5.388793945E-2,-5.104385376E-2,9.903256073E0,9.903534229E0
4.723899500E0,4.296066284E-2,-4.595443726E-2,9.837692413E0,9.837893547E0
4.733930500E0,3.278182983E-2,-4.400848389E-2,9.840985565E0,9.841138567E0
4.743962500E0,3.023712158E-2,-4.849914551E-2,9.855804749E0,9.855970459E0
4.753993500E0,4.191284180E-2,-4.879852295E-2,9.869875488E0,9.870085113E0
4.764024500E0,4.460723877E-2,-3.847000122E-2,9.860295410E0,9.860471354E0
4.774056500E0,3.338058472E-2,-3.757186890E-2,9.823921051E0,9.824049609E0
4.784087500E0,5.837860107E-3,-5.763015747E-2,9.796827393E0,9.796998636E0
4.794119500E0,8.083190918E-3,-4.251159668E-2,9.818981323E0,9.819076678E0
4.804150500E0,1.122665405E-2,-3.338058472E-2,9.858349457E0,9.858412363E0
4.814181500E0,3.173400879E-2,-5.044509888E-2,9.864337006E0,9.864517034E0
4.824213500E0,6.107299805E-2,-4.116439819E-2,9.880802765E0,9.881077254E0
4.834244500E0,7.334747314E-2,-4.490661621E-2,9.886490936E0,9.886864998E0
4.844276500E0,5.538482666E-2,-3.787124634E-2,9.882000275E0,9.882228045E0
4.854307500E0,2.888992310E-2,-3.667373657E-2,9.861193542E0,9.861304055E0
4.864338500E0,1.451980591E-2,-3.951782227E-2,9.849966888E0,9.850056862E0
4.874370500E0,1.481918335E-2,-3.248245239E-2,9.872420197E0,9.872484756E0
4.884401500E0,3.188369751E-2,-3.951782227E-2,9.892927551E0,9.893057857E0
4.894433500E0,4.400848389E-2,-2.574645996E-2,9.882898407E0,9.883029928E0
4.904464500E0,4.011657715E-2,-5.403762817E-2,9.881102142E0,9.881331335E0
4.914495500E0,5.822891235E-2,-6.047424316E-2,9.894873505E0,9.895229629E0
4.924527500E0,6.646179199E-2,-5.822891235E-2,9.906698914E0,9.907092971E0
4.934558500E0,8.083190918E-2,-5.104385376E-2,9.923613739E0,9.924074209E0
4.944590500E0,1.022373962E-1,-5.418731689E-2,9.963131561E0,9.963803453E0
4.954621500E0,1.148112488E-1,-5.643264771E-2,9.940378876E0,9.941202063E0
4.964652500E0,1.065783691E-1,-6.152206421E-2,9.890532532E0,9.891298078E0
4.974684500E0,1.103205872E-1,-7.694000244E-2,9.904603271E0,9.905516461E0
4.984715500E0,1.085243225E-1,-7.589218140E-2,9.875114594E0,9.876002500E0
4.994747500E0,1.008901978E-1,-8.322692871E-2,9.853409729E0,9.854277693E0
5.004778500E0,8.637039185E-2,-8.936416626E-2,9.820478210E0,9.821264587E0
5.014809500E0,8.128097534E-2,-7.918533325E-2,9.818981323E0,9.819637017E0
5.024841500E0,8.831634521E-2,-7.200027466E-2,9.856702881E0,9.857361488E0
5.034872500E0,9.894424438E-2,-7.050338745E-2,9.880054321E0,9.880801287E0
5.044904500E0,1.139131165E-1,-5.852828979E-2,9.902357941E0,9.903186080E0
5.054935500E0,1.369651794E-1,-6.107299805E-2,9.908495178E0,9.909629966E0
5.064966500E0,1.143621826E-1,-5.343887329E-2,9.888137512E0,9.888943214E0
5.074998500E0,1.133143616E-1,-6.481521606E-2,9.884694672E0,9.885556631E0
5.085029500E0,9.056167603E-2,-5.837860107E-2,9.870773621E0,9.871361676E0
5.095061500E0,9.265731812E-2,-6.735992432E-2,9.846224670E0,9.846891032E0
5.105092500E0,7.170089722E-2,-7.424560547E-2,9.822573853E0,9.823116131E0
5.115123500E0,6.735992432E-2,-6.526428223E-2,9.817933502E0,9.818381488E0
5.125155500E0,4.909790039E-2,-7.738906860E-2,9.846074982E0,9.846501522E0
5.135186500E0,7.200027466E-2,-8.681945801E-2,9.900112610E0,9.900755090E0
5.145218500E0,8.921447754E-2,-8.981323242E-2,9.937834167E0,9.938640429E0
5.155249500E0,9.909393311E-2,-8.307723999E-2,9.922715607E0,9.923558155E0
5.165280500E0,1.059796143E-1,-6.331832886E-2,9.883197784E0,9.883968805E0
5.175312500E0,8.846603394E-2,-6.316864014E-2,9.834249573E0,9.834850338E0
5.185343500E0,6.795867920E-2,-6.092330933E-2,9.837842102E0,9.838265460E0
5.195375500E0,9.535171509E-2,-6.945556641E-2,9.841734009E0,9.842440974E0
5.205406500E0,1.202000427E-1,-6.990463257E-2,9.803862762E0,9.804848789E0
5.215437500E0,1.044827271E-1,-5.119354248E-2,9.800719299E0,9.801409909E0
5.225469500E0,1.287322998E-1,-5.014572144E-2,9.847721558E0,9.848690597E0
5.235500500E0,1.526824951E-1,-6.735992432E-2,9.872869263E0,9.874279558E0
5.245532500E0,1.645079041E-1,-7.843688965E-2,9.951306152E0,9.952974899E0
5.255563500E0,2.067201233E-1,-8.607101440E-2,9.957593079E0,9.960110509E0
5.265594500E0,1.823208618E-1,-7.813751221E-2,9.859846344E0,9.861841425E0
5.275626500E0,1.477427673E-1,-8.487350464E-2,9.807155914E0,9.808635918E0
5.285657500E0,1.023870850E-1,-8.891510010E-2,9.765542450E0,9.766483930E0
5.295689500E0,8.696914673E-2,-8.098159790E-2,9.695338440E0,9.696066683E0
5.305720500E0,9.595046997E-2,-7.978408813E-2,9.720635834E0,9.721436777E0
5.315751500E0,1.267863464E-1,-8.816665649E-2,9.830956421E0,9.832169256E0
5.325783500E0,1.625619507E-1,-7.409591675E-2,9.895023193E0,9.896635822E0
5.335814500E0,1.761836243E-1,-4.550537109E-2,9.921667786E0,9.923336287E0
5.345846500E0,1.664538574E-1,-8.532257080E-3,9.919721832E0,9.921121959E0
5.355877500E0,1.269360352E-1,1.451980591E-2,9.889035645E0,9.889860947E0
5.365908500E0,1.028361511E-1,2.574645996E-2,9.858648834E0,9.859218782E0
5.375940500E0,7.035369873E-2,9.729766846E-3,9.846224670E0,9.846480822E0
5.385971500E0,6.032455444E-2,5.538482666E-3,9.861941986E0,9.862128039E0
5.396002500E0,8.098159790E-2,-1.347198486E-2,9.878856812E0,9.879197914E0
5.406034500E0,1.216969299E-1,-2.694396973E-2,9.903555450E0,9.904339790E0
5.416065500E0,1.450483704E-1,-2.859054565E-2,9.901759186E0,9.902862789E0
5.426097500E0,1.486408997E-1,-2.529739380E-2,9.897567902E0,9.898716303E0
5.436128500E0,1.787283325E-1,-4.326004028E-2,9.884694672E0,9.886405009E0
5.446159500E0,1.860630798E-1,-5.643264771E-2,9.853260040E0,9.855178209E0
5.456191500E0,1.957928467E-1,-4.475692749E-2,9.847122803E0,9.849170803E0
5.466222583E0,1.878593445E-1,-3.472778320E-2,9.828561401E0,9.830417914E0
5.476254583E0,2.017803955E-1,-3.173400879E-2,9.824370117E0,9.826493300E0
5.486285583E0,2.079176331E-1,-3.338058472E-2,9.851314087E0,9.853564494E0
5.496316583E0,2.058219910E-1,-2.694396973E-2,9.868079224E0,9.870262217E0
5.506348583E0,2.020797729E-1,-2.125579834E-2,9.887239380E0,9.889327105E0
5.516379583E0,2.017803955E-1,-2.829116821E-2,9.875264282E0,9.877366064E0
5.526411583E0,2.028282166E-1,-2.859054565E-2,9.891430664E0,9.893551298E0
5.536442583E0,1.945953369E-1,-2.619552612E-2,9.890532532E0,9.892481353E0
5.546473583E0,1.758842468E-1,-2.694396973E-3,9.851613464E0,9.853183769E0
5.556505583E0,1.555265808E-1,1.317260742E-2,9.877958679E0,9.879191754E0
5.566536583E0,1.314266968E-1,2.829116821E-2,9.850865021E0,9.851782327E0
5.576568583E0,1.419049072E-1,4.520599365E-2,9.790241089E0,9.791373814E0
5.586599583E0,1.143621826E-1,3.861968994E-2,9.789193268E0,9.789937437E0
5.596630583E0,1.098715210E-1,2.529739380E-2,9.792935486E0,9.793584489E0
5.606662583E0,1.326242065E-1,3.008743286E-2,9.859996033E0,9.860933840E0
5.616693583E0,1.784289551E-1,3.847000122E-2,9.887089691E0,9.888774413E0
5.626725583E0,2.035766602E-1,3.547622681E-2,9.849218445E0,9.851385994E0
5.636756583E0,1.939965820E-1,3.487747192E-2,9.828112335E0,9.830088666E0
5.646787583E0,1.782792664E-1,2.529739380E-2,9.846374359E0,9.848020688E0
5.656819583E0,2.044747925E-1,1.751358032E-2,9.848020935E0,9.850159034E0
5.666850583E0,2.155517578E-1,1.347198486E-3,9.846074982E0,9.848434237E0
5.676882583E0,2.064207458E-1,2.275268555E-2,9.850415955E0,9.852604817E0
5.686913583E0,1.986369324E-1,2.140548706E-2,9.837991791E0,9.840020188E0
5.696944583E0,1.886077881E-1,2.275268555E-2,9.870923309E0,9.872751266E0
5.706976583E0,1.670526123E-1,7.185058594E-3,9.879305878E0,9.880720764E0
5.717007583E0,1.829196167E-1,6.735992432E-3,9.921218719E0,9.922907126E0
5.727039583E0,1.892065430E-1,3.293151855E-3,9.936037903E0,9.937839764E0
5.737070583E0,1.740879822E-1,1.646575928E-3,9.920320587E0,9.921848109E0
5.747101583E0,1.516346741E-1,-9.430389404E-3,9.870623932E0,9.871793090E0
5.757133583E0,1.312770081E-1,-2.724334717E-2,9.848470001E0,9.849382581E0
5.767164583E0,1.242416382E-1,-1.257385254E-2,9.823621674E0,9.824415345E0
5.777196583E0,1.324745178E-1,-2.170486450E-2,9.806856537E0,9.807775269E0
5.787227583E0,1.387614441E-1,-5.089416504E-3,9.791288910E0,9.792273442E0
5.797258583E0,1.516346741E-1,1.422042847E-2,9.784103851E0,9.785289136E0
5.807290583E0,1.715432739E-1,2.529739380E-2,9.805509338E0,9.807042390E0
5.817321583E0,1.992356873E-1,2.844085693E-2,9.805209961E0,9.807275163E0
5.827353583E0,1.924996948E-1,4.326004028E-2,9.812395020E0,9.814378410E0
5.837384583E0,1.960922241E-1,3.278182983E-2,9.821376343E0,9.823388421E0
5.847415583E0,1.984872437E-1,3.068618774E-2,9.839788055E0,9.841837623E0
5.857447583E0,1.770817566E-1,3.323089600E-2,9.844578094E0,9.846226693E0
5.867478583E0,1.736389160E-1,4.326004028E-2,9.859696655E0,9.861320400E0
5.877510583E0,1.683998108E-1,3.547622681E-2,9.846224670E0,9.847728536E0
5.887541583E0,1.487905884E-1,3.727249146E-2,9.836045837E0,9.837241768E0
5.897572583E0,1.434017944E-1,3.547622681E-2,9.845775604E0,9.846883765E0
5.907604583E0,1.568737793E-1,2.814147949E-2,9.845176849E0,9.846466804E0
5.917635583E0,1.552272034E-1,2.454895020E-2,9.835297394E0,9.836552900E0
5.927666583E0,1.600172424E-1,1.676513672E-2,9.842183075E0,9.843498071E0
5.937698583E0,1.791773987E-1,9.280700684E-3,9.856104126E0,9.857737023E0
5.947729583E0,1.901046753E-1,-8.981323242E-4,9.862091675E0,9.863923803E0
5.957761583E0,1.939965820E-1,1.047821045E-3,9.865684204E0,9.867591428E0
5.967792583E0,2.157014465E-1,-1.107696533E-2,9.880503387E0,9.882863806E0
5.977823583E0,2.101629639E-1,-1.107696533E-2,9.893675995E0,9.895914099E0
5.987855583E0,2.014810181E-1,-3.143463135E-3,9.896669769E0,9.898720978E0
5.997886583E0,2.053729248E-1,-4.490661621E-4,9.918674011E0,9.920799987E0
6.007918583E0,1.836680603E-1,2.185455322E-2,9.884694672E0,9.886425053E0
6.017949583E0,1.652563477E-1,3.772155762E-2,9.822873230E0,9.824335655E0
6.027980583E0,1.216969299E-1,7.020401001E-2,9.801318054E0,9.802324946E0
6.038012583E0,1.290316772E-1,5.553451538E-2,9.843829651E0,9.844831916E0
6.048043583E0,1.466949463E-1,5.418731689E-2,9.861193542E0,9.862433460E0
6.058075583E0,1.733395386E-1,5.763015747E-2,9.849368134E0,9.851061895E0
6.068106583E0,1.733395386E-1,4.326004028E-2,9.827513580E0,9.829137358E0
6.078137583E0,1.663041687E-1,3.068618774E-2,9.874665527E0,9.876113507E0
6.088169583E0,1.646575928E-1,1.032852173E-2,9.903854828E0,9.905228884E0
6.098200583E0,2.291734314E-1,1.137634277E-2,9.954599304E0,9.957243453E0
6.108232583E0,2.447410583E-1,1.407073975E-2,9.931098175E0,9.934123370E0
6.118263583E0,2.029779053E-1,-1.766326904E-2,9.860295410E0,9.862400195E0
6.128294583E0,1.478924561E-1,-1.392105103E-2,9.820178833E0,9.821302270E0
6.138326583E0,1.178050232E-1,-1.886077881E-2,9.787097626E0,9.787824768E0
6.148357583E0,1.005908203E-1,-1.916015625E-2,9.752070465E0,9.752608060E0
6.158389583E0,1.155596924E-1,-1.706451416E-2,9.796228638E0,9.796925067E0
6.168420583E0,1.552272034E-1,-2.350112915E-2,9.834099884E0,9.835352984E0
6.178451583E0,1.808239746E-1,-1.137634277E-2,9.859546967E0,9.861211544E0
6.188483583E0,2.106120300E-1,2.095642090E-2,9.866881714E0,9.869151501E0
6.198514583E0,2.053729248E-1,5.792953491E-2,9.840686188E0,9.842999467E0
6.208546583E0,1.826202393E-1,7.274871826E-2,9.809251556E0,9.811221057E0
6.218577583E0,1.582209778E-1,8.457412720E-2,9.786798248E0,9.788442502E0
6.228608583E0,1.549278259E-1,1.011895752E-1,9.793833618E0,9.795581601E0
6.238640583E0,1.621128845E-1,1.007405090E-1,9.827064514E0,9.828917855E0
6.248671583E0,1.695973206E-1,8.816665649E-2,9.871671753E0,9.873522158E0
6.258702583E0,1.911524963E-1,4.191284180E-2,9.927655334E0,9.929583899E0
6.268734583E0,1.872605896E-1,8.831634521E-3,9.944719849E0,9.946486686E0
6.278765583E0,1.923500061E-1,-2.215393066E-2,9.927805023E0,9.929692941E0
6.288797583E0,1.838177490E-1,-2.918930054E-2,9.910291443E0,9.912039016E0
6.298828583E0,1.678010559E-1,-2.948867798E-2,9.877359924E0,9.878829174E0
6.308859583E0,1.675016785E-1,-2.514770508E-2,9.836345215E0,9.837803434E0
6.318891583E0,1.733395386E-1,-3.397933960E-2,9.812095642E0,9.813685448E0
6.328922583E0,1.730401611E-1,-3.787124634E-2,9.797875214E0,9.799476304E0
6.338954583E0,1.776805115E-1,-1.751358032E-2,9.812245331E0,9.813869549E0
6.348985583E0,1.917512512E-1,-7.035369873E-3,9.845775604E0,9.847645165E0
6.359016583E0,2.088157654E-1,-7.933502197E-3,9.868827667E0,9.871039788E0
6.369048583E0,1.990859985E-1,-7.035369873E-3,9.880054321E0,9.882062443E0
6.379079583E0,2.071691895E-1,4.805007935E-2,9.914333038E0,9.916613710E0
6.389111583E0,2.011816406E-1,5.628295898E-2,9.912985840E0,9.915186841E0
6.399142583E0,1.715432739E-1,5.852828979E-2,9.859097900E0,9.860763868E0
6.409173583E0,1.336720276E-1,8.442443848E-2,9.868977356E0,9.870243652E0
6.419205583E0,1.164578247E-1,1.110690308E-1,9.881551208E0,9.882861582E0
6.429236583E0,1.190025330E-1,1.041833496E-1,9.791887665E0,9.793164954E0
6.439268583E0,1.092727661E-1,8.367599487E-2,9.788145447E0,9.789113009E0
6.449299583E0,1.094224548E-1,6.541397095E-2,9.819580078E0,9.820407587E0
6.459330250E0,1.814227295E-1,3.113525391E-2,9.858798523E0,9.860516818E0
6.469362250E0,2.278262329E-1,1.287322998E-2,9.911339264E0,9.913965731E0
6.479393250E0,2.201921082E-1,-2.155517578E-2,9.903256073E0,9.905727133E0
6.489425250E0,2.176473999E-1,-6.601272583E-2,9.896969147E0,9.899582131E0
6.499456250E0,2.127076721E-1,-6.765930176E-2,9.902507629E0,9.905022952E0
6.509487250E0,1.993853760E-1,-6.047424316E-2,9.894125061E0,9.896318628E0
6.519519250E0,1.984872437E-1,-6.182144165E-2,9.842781830E0,9.844977056E0
6.529550250E0,1.812730408E-1,-3.622467041E-2,9.816286926E0,9.818027356E0
6.539581250E0,1.474433899E-1,1.197509766E-3,9.825417938E0,9.826524240E0
6.549613250E0,1.544787598E-1,1.856140137E-2,9.849218445E0,9.850447309E0
6.559644250E0,1.697470093E-1,1.616638184E-2,9.864337006E0,9.865810659E0
6.569676250E0,1.764830017E-1,2.275268555E-2,9.889185333E0,9.890786141E0
6.579707250E0,1.695973206E-1,3.637435913E-2,9.892478485E0,9.893999036E0
6.589738250E0,1.541793823E-1,3.607498169E-2,9.864337006E0,9.865607799E0
6.599770250E0,1.261875916E-1,3.218307495E-2,9.850116577E0,9.850977395E0
6.609801250E0,1.055305481E-1,2.829116821E-2,9.800419922E0,9.801028912E0
6.619833250E0,1.008901978E-1,1.362167358E-2,9.780810699E0,9.781340518E0
6.629864250E0,8.786727905E-2,3.442840576E-3,9.768087158E0,9.768482955E0
6.639895250E0,1.122665405E-1,1.002914429E-2,9.799521790E0,9.800169981E0
6.649927250E0,1.402583313E-1,5.987548828E-4,9.814340973E0,9.815343167E0
6.659958250E0,1.567240906E-1,-2.170486450E-2,9.822573853E0,9.823848056E0
6.669990250E0,1.540296936E-1,-2.844085693E-3,9.821675720E0,9.822883853E0
6.680021250E0,1.410067749E-1,-2.649490356E-2,9.818232880E0,9.819281123E0
6.690052250E0,1.345701599E-1,-1.481918335E-2,9.818831635E0,9.819764936E0
6.700084250E0,1.278341675E-1,-1.646575928E-3,9.809850311E0,9.810683331E0
6.710115250E0,1.170565796E-1,-1.197509766E-3,9.805659027E0,9.806357766E0
6.720147250E0,1.028361511E-1,3.592529297E-3,9.829758911E0,9.830297474E0
6.730178250E0,8.696914673E-2,8.831634521E-3,9.843829651E0,9.844217786E0
6.740209250E0,9.190887451E-2,1.047821045E-3,9.868827667E0,9.869255690E0
6.750241250E0,1.088237000E-1,-6.436614990E-3,9.889933777E0,9.890534573E0
6.760272250E0,1.333726501E-1,-3.592529297E-3,9.908644867E0,9.909543091E0
6.770303250E0,1.377136230E-1,-1.990859985E-2,9.910890198E0,9.911866923E0
6.780335250E0,1.297801208E-1,-3.577560425E-2,9.928703156E0,9.929615759E0
6.790366250E0,1.206491089E-1,-4.670288086E-2,9.906848602E0,9.907693303E0
6.800398250E0,1.257385254E-1,-5.553451538E-2,9.902657318E0,9.903611272E0
6.810429250E0,1.142124939E-1,-5.807922363E-2,9.902357941E0,9.903186885E0
6.820460250E0,1.237925720E-1,-3.472778320E-2,9.898915100E0,9.899750036E0
6.830492250E0,1.309776306E-1,-1.721420288E-2,9.878856812E0,9.879740046E0
6.840523250E0,1.216969299E-1,1.032852173E-2,9.826765137E0,9.827524097E0
6.850555250E0,1.023870850E-1,2.574645996E-2,9.766290894E0,9.766861513E0
6.860586250E0,7.948471069E-2,5.209167480E-2,9.770631866E0,9.771094024E0
6.870617250E0,1.113684082E-1,5.478607178E-2,9.820478210E0,9.821262481E0
6.880649250E0,1.348695374E-1,4.370910645E-2,9.805509338E0,9.806534233E0
6.890680250E0,1.357676697E-1,4.939727783E-2,9.739197235E0,9.740268771E0
6.900712250E0,1.008901978E-1,3.966751099E-2,9.866881714E0,9.867477241E0
6.910743250E0,1.179547119E-1,2.993774414E-2,9.952653351E0,9.953397325E0
6.920774250E0,1.645079041E-1,2.365081787E-2,9.995314636E0,9.996696299E0
6.930806250E0,1.695973206E-1,9.580078125E-3,9.921817474E0,9.923271488E0
6.940837250E0,1.106199646E-1,2.694396973E-3,9.874665527E0,9.875285480E0
6.950868250E0,4.355941772E-2,-5.688171387E-3,9.840835876E0,9.840933925E0
6.960900250E0,2.784210205E-2,-3.577560425E-2,9.825268250E0,9.825372830E0
6.970931250E0,5.568420410E-2,-3.457809448E-2,9.779014435E0,9.779234106E0
6.980963250E0,7.634124756E-2,-6.391708374E-2,9.773925018E0,9.774432139E0
6.990994250E0,1.149609375E-1,-7.768844604E-2,9.820627899E0,9.821608007E0
7.001025250E0,1.493893433E-1,-6.885681152E-2,9.874815216E0,9.876185194E0
7.011057250E0,1.886077881E-1,-6.810836792E-2,9.904453583E0,9.906483353E0
7.021088250E0,1.935475159E-1,-3.203338623E-2,9.908644867E0,9.910586758E0
7.031120250E0,1.782792664E-1,-6.735992432E-3,9.885293427E0,9.886903206E0
7.041151250E0,1.342707825E-1,1.302291870E-2,9.845925293E0,9.846849400E0
7.051182250E0,1.109193420E-1,4.086502075E-2,9.817933502E0,9.818645085E0
7.061214250E0,8.771759033E-2,5.568420410E-2,9.823022919E0,9.823572383E0
7.071245250E0,9.340576172E-2,7.364685059E-2,9.865384827E0,9.866101878E0
7.081277250E0,8.996292114E-2,6.765930176E-2,9.884844360E0,9.885485276E0
7.091308250E0,1.070274353E-1,4.625381470E-2,9.887688446E0,9.888375857E0
7.101339250E0,1.191522217E-1,4.505630493E-2,9.911788330E0,9.912606883E0
7.111371250E0,1.161584473E-1,2.859054565E-2,9.893526306E0,9.894249490E0
7.121402250E0,1.231938171E-1,1.826202393E-2,9.867031403E0,9.867817333E0
7.131434250E0,1.230441284E-1,2.874023438E-2,9.845625916E0,9.846436692E0
7.141465250E0,1.320254517E-1,1.392105103E-2,9.832153931E0,9.833050159E0
7.151496250E0,1.107696533E-1,1.182540894E-2,9.833800507E0,9.834431461E0
7.161528250E0,1.218466187E-1,-8.083190918E-3,9.850116577E0,9.850873490E0
7.171559250E0,1.206491089E-1,-1.841171265E-2,9.866732025E0,9.867486816E0
7.181590250E0,1.154100037E-1,-2.948867798E-2,9.886191559E0,9.886909152E0
7.191622250E0,1.193019104E-1,-3.547622681E-2,9.897567902E0,9.898350462E0
7.201653250E0,1.128652954E-1,-4.355941772E-2,9.930050354E0,9.930787282E0
7.211685250E0,1.347198486E-1,-3.757186890E-2,9.912836151E0,9.913822756E0
7.221716250E0,1.351689148E-1,-3.412902832E-2,9.897867279E0,9.898849029E0
7.231747250E0,1.254391479E-1,-2.454895020E-2,9.813742218E0,9.814574568E0
7.241779250E0,9.131011963E-2,-4.490661621E-4,9.794731750E0,9.795157365E0
7.251810250E0,7.319778442E-2,2.903961182E-2,9.831255798E0,9.831571176E0
7.261842250E0,8.502319336E-2,5.029541016E-2,9.757459259E0,9.757959303E0
7.271873250E0,7.589218140E-2,5.313949585E-2,9.816735992E0,9.817173166E0
7.281904250E0,8.771759033E-2,2.814147949E-2,9.909992065E0,9.910420226E0
7.291936250E0,1.335223389E-1,3.293151855E-2,9.929152222E0,9.930104558E0
7.301967250E0,1.535806274E-1,3.427871704E-2,9.897567902E0,9.898818738E0
7.311999250E0,1.222956848E-1,2.335144043E-2,9.857002258E0,9.857788547E0
7.322030250E0,9.400451660E-2,1.377136230E-2,9.858050079E0,9.858507892E0
7.332061250E0,1.098715210E-1,1.212478638E-2,9.869725800E0,9.870344782E0
7.342093250E0,1.122665405E-1,7.484436035E-3,9.834848328E0,9.835491926E0
7.352124250E0,1.064286804E-1,1.317260742E-2,9.833501129E0,9.834085877E0
7.362156250E0,9.939331055E-2,2.978805542E-2,9.878856812E0,9.879401716E0
7.372187250E0,1.058299255E-1,3.263214111E-2,9.888885956E0,9.889506068E0
7.382218250E0,1.032852173E-1,3.472778320E-2,9.888287201E0,9.888887583E0
7.392250250E0,9.834548950E-2,1.960922241E-2,9.863588562E0,9.864098321E0
7.402281250E0,1.028361511E-1,1.377136230E-2,9.866432648E0,9.866978165E0
7.412312250E0,9.699829102E-2,5.239105225E-3,9.898915100E0,9.899391712E0
7.422344250E0,1.221459961E-1,-1.691482544E-2,9.876312103E0,9.877081883E0
7.432375250E0,1.160087585E-1,-8.232879639E-3,9.843679962E0,9.844366968E0
7.442407250E0,1.056802368E-1,-1.047821045E-3,9.805958405E0,9.806527910E0
7.452438250E0,7.828720093E-2,-2.245330811E-3,9.777816925E0,9.778130586E0
7.462469208E0,6.661148071E-2,-2.694396973E-3,9.800270233E0,9.800496977E0
7.472501208E0,7.200027466E-2,-1.332229614E-2,9.838590546E0,9.838863016E0
7.482532208E0,1.026864624E-1,-4.340972900E-3,9.870324554E0,9.870859647E0
7.492564208E0,1.178050232E-1,-1.002914429E-2,9.881401520E0,9.882108814E0
7.502595208E0,1.306782532E-1,-4.490661621E-4,9.883197784E0,9.884061688E0
7.512626208E0,1.202000427E-1,1.586700439E-2,9.876611481E0,9.877355626E0
7.522658208E0,9.250762939E-2,2.065704346E-2,9.876162415E0,9.876617256E0
7.532689208E0,9.355545044E-2,2.424957275E-2,9.862840118E0,9.863313635E0
7.542720208E0,8.143066406E-2,2.559677124E-2,9.858648834E0,9.859018358E0
7.552752208E0,7.514373779E-2,3.218307495E-2,9.849966888E0,9.850306088E0
7.562783208E0,7.589218140E-2,3.727249146E-2,9.852810974E0,9.853173750E0
7.572815208E0,6.436614990E-2,4.221221924E-2,9.872569885E0,9.872869948E0
7.582846208E0,8.427474976E-2,4.340972900E-2,9.895322571E0,9.895776646E0
7.592877208E0,1.013392639E-1,4.296066284E-2,9.896370392E0,9.896982479E0
7.602909208E0,9.131011963E-2,2.859054565E-2,9.891879730E0,9.892342471E0
7.612940208E0,1.199006653E-1,2.544708252E-2,9.885143738E0,9.885903623E0
7.622972208E0,1.056802368E-1,2.155517578E-2,9.865235138E0,9.865824713E0
7.633003208E0,1.122665405E-1,1.242416382E-2,9.856702881E0,9.857350040E0
7.643034208E0,1.095721436E-1,1.092727661E-2,9.847721558E0,9.848337186E0
7.653066208E0,1.041833496E-1,2.454895020E-2,9.839039612E0,9.839621807E0
7.663097208E0,9.744735718E-2,1.466949463E-2,9.833501129E0,9.833994897E0
7.673129208E0,1.013392639E-1,1.167572021E-2,9.841284943E0,9.841813618E0
7.683160208E0,1.091230774E-1,1.930984497E-2,9.838740234E0,9.839364315E0
7.693191208E0,1.128652954E-1,1.496887207E-2,9.894125061E0,9.894780107E0
7.703223208E0,1.294807434E-1,-8.681945801E-3,9.938582611E0,9.939429810E0
7.713254208E0,1.176553345E-1,-1.047821045E-3,9.875114594E0,9.875815516E0
7.723285208E0,8.966354370E-2,2.469863892E-2,9.809850311E0,9.810291163E0
7.733317208E0,5.239105225E-2,3.712280273E-2,9.775870972E0,9.776081842E0
7.743348208E0,2.604583740E-2,6.047424316E-2,9.798923035E0,9.799144256E0
7.753380208E0,5.478607178E-2,4.745132446E-2,9.827962646E0,9.828229898E0
7.763411208E0,6.047424316E-2,5.777984619E-2,9.814490662E0,9.814847049E0
7.773442208E0,6.855743408E-2,7.484436035E-2,9.748028870E0,9.748557260E0
7.783474208E0,6.301895142E-2,6.975494385E-2,9.812993774E0,9.813444042E0
7.793505208E0,7.304809570E-2,7.005432129E-2,9.899513855E0,9.900031222E0
7.803537208E0,1.200503540E-1,3.547622681E-2,9.996661835E0,9.997445598E0
7.813568208E0,1.585203552E-1,2.948867798E-2,9.981393585E0,9.982695838E0
7.823599208E0,1.348695374E-1,3.188369751E-2,9.931098175E0,9.932065109E0
7.833631208E0,7.708969116E-2,2.080673218E-2,9.848919067E0,9.849242739E0
7.843662208E0,2.888992310E-2,8.981323242E-3,9.787247314E0,9.787294074E0
7.853694208E0,2.859054565E-2,-1.646575928E-3,9.783355408E0,9.783397322E0
7.863725208E0,6.691085815E-2,-1.362167358E-2,9.753866730E0,9.754105740E0
7.873756208E0,1.128652954E-1,-2.559677124E-2,9.787846069E0,9.788530250E0
7.883788208E0,1.407073975E-1,-3.607498169E-2,9.826765137E0,9.827838675E0
7.893819208E0,1.619631958E-1,-2.559677124E-2,9.843230896E0,9.844596576E0
7.903850208E0,1.782792664E-1,-1.451980591E-2,9.855505371E0,9.857128407E0
7.913882208E0,1.683998108E-1,1.377136230E-2,9.862241364E0,9.863688603E0
7.923913208E0,1.167572021E-1,2.305206299E-2,9.845027161E0,9.845746464E0
7.933945208E0,1.097218323E-1,4.370910645E-2,9.834548950E0,9.835258127E0
7.943976208E0,8.756790161E-2,5.643264771E-2,9.824819183E0,9.825371482E0
7.954007208E0,7.813751221E-2,7.679031372E-2,9.831555176E0,9.832165550E0
7.964039208E0,7.948471069E-2,6.436614990E-2,9.843679962E0,9.844211295E0
7.974070208E0,8.652008057E-2,7.768844604E-2,9.858648834E0,9.859334565E0
7.984102208E0,8.322692871E-2,6.182144165E-2,9.861193542E0,9.861738523E0
7.994133208E0,7.738906860E-2,3.727249146E-2,9.864486694E0,9.864860671E0
8.004164208E0,9.086105347E-2,3.173400879E-2,9.869725800E0,9.870195040E0
8.014196208E0,8.382568359E-2,1.167572021E-2,9.869426422E0,9.869789307E0
8.024227208E0,9.220825195E-2,-8.981323242E-4,9.863738251E0,9.864169273E0
8.034259208E0,9.819580078E-2,-2.649490356E-2,9.871372375E0,9.871896321E0
8.044290208E0,1.043330383E-1,-4.415817261E-2,9.887987823E0,9.888636839E0
8.054321208E0,8.502319336E-2,-5.763015747E-2,9.870923309E0,9.871457702E0
8.064353208E0,8.726852417E-2,-6.242019653E-2,9.877359924E0,9.877942658E0
8.074384208E0,9.759704590E-2,-5.508544922E-2,9.892029419E0,9.892664232E0
8.084415208E0,8.397537231E-2,-5.044509888E-2,9.886640625E0,9.887125943E0
8.094447208E0,8.861572266E-2,-4.011657715E-2,9.899214478E0,9.899692387E0
8.104478208E0,1.059796143E-1,-3.382965088E-2,9.906848602E0,9.907473207E0
8.114510208E0,9.834548950E-2,-2.874023438E-2,9.887987823E0,9.888518647E0
8.124541208E0,8.936416626E-2,-1.197509766E-3,9.839788055E0,9.840193919E0
8.134572208E0,5.358856201E-2,2.799179077E-2,9.830806732E0,9.830992640E0
8.144604208E0,3.652404785E-2,3.098556519E-2,9.790540466E0,9.790657625E0
8.154635208E0,4.026626587E-2,3.278182983E-2,9.867929535E0,9.868066139E0
8.164667208E0,3.098556519E-2,2.230361938E-2,9.906698914E0,9.906772477E0
8.174698208E0,6.481521606E-2,-1.362167358E-2,9.880503387E0,9.880725366E0
8.184729208E0,6.661148071E-2,-9.729766846E-3,9.860594788E0,9.860824576E0
8.194761208E0,5.089416504E-2,-1.601669312E-2,9.854457550E0,9.854601989E0
8.204792208E0,3.832031250E-2,-3.787124634E-2,9.840985565E0,9.841133043E0
8.214824208E0,3.382965088E-2,-4.520599365E-2,9.845176849E0,9.845338756E0
8.224855208E0,3.787124634E-2,-5.209167480E-2,9.848020935E0,9.848231522E0
8.234886208E0,6.017486572E-2,-4.071533203E-2,9.888137512E0,9.888404432E0
8.244918208E0,5.373825073E-2,-3.248245239E-2,9.927954712E0,9.928153286E0
8.254949208E0,6.990463257E-2,-4.475692749E-2,9.970466309E0,9.970811815E0
8.264980208E0,5.598358154E-2,-3.068618774E-2,9.941875763E0,9.942080742E0
8.275012208E0,5.538482666E-2,-2.724334717E-2,9.900561676E0,9.900754071E0
8.285043208E0,3.532653809E-2,-2.859054565E-2,9.858199768E0,9.858304522E0
8.295075208E0,1.706451416E-2,-3.772155762E-2,9.833201752E0,9.833288911E0
8.305106208E0,2.320175171E-2,-5.927673340E-2,9.843380585E0,9.843586409E0
8.315137208E0,4.146377563E-2,-4.849914551E-2,9.845625916E0,9.845832676E0
8.325169208E0,4.580474854E-2,-3.727249146E-2,9.845476227E0,9.845653328E0
8.335200208E0,4.131408691E-2,-4.116439819E-2,9.830058289E0,9.830231295E0
8.345231208E0,1.691482544E-2,-5.074447632E-2,9.813143463E0,9.813289242E0
8.355263208E0,1.362167358E-2,-5.149291992E-2,9.818532257E0,9.818676731E0
8.365294208E0,7.484436035E-4,-4.326004028E-2,9.829160156E0,9.829255382E0
8.375326208E0,7.933502197E-3,-3.263214111E-2,9.844877472E0,9.844934750E0
8.385357208E0,4.625381470E-2,-4.191284180E-2,9.863887939E0,9.864085431E0
8.395388208E0,5.777984619E-2,-4.969665527E-2,9.885742493E0,9.886036258E0
8.405420208E0,5.523513794E-2,-3.457809448E-2,9.893376617E0,9.893591232E0
8.415451208E0,4.266128540E-2,-3.712280273E-2,9.881401520E0,9.881563342E0
8.425483208E0,3.248245239E-2,-4.191284180E-2,9.890083466E0,9.890225617E0
8.435514208E0,2.694396973E-2,-5.029541016E-2,9.882149963E0,9.882314684E0
8.445545208E0,1.616638184E-2,-4.326004028E-2,9.884844360E0,9.884952241E0
8.455577208E0,1.092727661E-2,-4.490661621E-2,9.882299652E0,9.882407724E0
8.465608250E0,1.661544800E-2,-4.745132446E-2,9.885143738E0,9.885271591E0
8.475640250E0,1.422042847E-2,-5.418731689E-2,9.895472260E0,9.895630840E0
8.485671250E0,3.203338623E-2,-4.550537109E-2,9.894574127E0,9.894730620E0
8.495702250E0,3.832031250E-2,-4.715194702E-2,9.868677979E0,9.868865021E0
8.505734250E0,4.790039063E-2,-4.819976807E-2,9.888586578E0,9.888820060E0
8.515765250E0,6.062393188E-2,-5.613327026E-2,9.877210236E0,9.877555783E0
8.525797250E0,5.029541016E-2,-6.945556641E-2,9.847122803E0,9.847496189E0
8.535828250E0,5.763015747E-2,-4.760101318E-2,9.861492920E0,9.861776194E0
8.545859250E0,5.448669434E-2,-4.849914551E-2,9.852511597E0,9.852781624E0
8.555891250E0,6.092330933E-2,-3.876937866E-2,9.831255798E0,9.831521006E0
8.565922250E0,5.718109131E-2,-5.029541016E-2,9.873168640E0,9.873462326E0
8.575953250E0,5.059478760E-2,-5.852828979E-2,9.898615723E0,9.898918053E0
8.585985250E0,4.026626587E-2,-5.508544922E-2,9.907597046E0,9.907832003E0
8.596016250E0,5.538482666E-2,-5.807922363E-2,9.887838135E0,9.888163816E0
8.606048250E0,3.817062378E-2,-6.271957397E-2,9.865833893E0,9.866107092E0
8.616079250E0,3.502716064E-2,-5.927673340E-2,9.857002258E0,9.857242726E0
8.626110250E0,8.232879639E-3,-6.346801758E-2,9.836644592E0,9.836852790E0
8.636142250E0,3.442840576E-3,-6.466552734E-2,9.898016968E0,9.898228800E0
8.646173250E0,2.050735474E-2,-7.529342651E-2,9.953252106E0,9.953558014E0
8.656205250E0,3.427871704E-2,-6.137237549E-2,9.889484711E0,9.889734549E0
8.666236250E0,2.933898926E-2,-4.894821167E-2,9.802814941E0,9.802981051E0
8.676267250E0,-1.272354126E-2,-3.727249146E-2,9.779613190E0,9.779692493E0
8.686299250E0,-2.769241333E-2,-2.110610962E-2,9.782008209E0,9.782070177E0
8.696330250E0,-1.422042847E-2,-4.056564331E-2,9.836195526E0,9.836289454E0
8.706361250E0,2.125579834E-2,-4.430786133E-2,9.838889923E0,9.839012649E0
8.716393250E0,2.739303589E-2,-3.891906738E-2,9.768536224E0,9.768652161E0
8.726424250E0,2.245330811E-2,-3.263214111E-2,9.855205994E0,9.855285596E0
8.736456250E0,3.652404785E-2,-4.266128540E-2,9.931996307E0,9.932155085E0
8.746487250E0,8.158035278E-2,-7.155120850E-2,1.002061203E1,1.002119955E1
8.756518250E0,1.139131165E-1,-7.095245361E-2,9.999954987E0,1.000085547E1
8.766550250E0,1.029858398E-1,-6.586303711E-2,9.911339264E0,9.912093120E0
8.776581250E0,4.490661621E-2,-5.927673340E-2,9.814490662E0,9.814772401E0
8.786613250E0,-1.437011719E-2,-6.945556641E-2,9.770631866E0,9.770889297E0
8.796644250E0,-1.960922241E-2,-8.128097534E-2,9.734856262E0,9.735215332E0
8.806675250E0,2.529739380E-2,-9.205856323E-2,9.724078674E0,9.724547331E0
8.816707250E0,6.466552734E-2,-1.109193420E-1,9.776320038E0,9.777163096E0
8.826738250E0,8.801696777E-2,-1.082249451E-1,9.851314087E0,9.852301704E0
8.836769250E0,9.669891357E-2,-1.016386414E-1,9.897268524E0,9.898262743E0
8.846801250E0,1.190025330E-1,-1.023870850E-1,9.923613739E0,9.924855382E0
8.856832250E0,1.086740112E-1,-7.783813477E-2,9.922116852E0,9.923017265E0
8.866864250E0,5.957611084E-2,-4.909790039E-2,9.874815216E0,9.875116985E0
8.876895250E0,-3.742218018E-3,-3.891906738E-2,9.837991791E0,9.838069484E0
8.886926250E0,-3.293151855E-3,-1.766326904E-2,9.825268250E0,9.825284678E0
8.896958250E0,-7.933502197E-3,-6.436614990E-3,9.853858795E0,9.853864091E0
8.906989250E0,-4.939727783E-3,2.395019531E-3,9.896370392E0,9.896371914E0
8.917021250E0,2.694396973E-2,-1.661544800E-2,9.901459808E0,9.901510409E0
8.927052250E0,6.406677246E-2,-3.382965088E-2,9.940079498E0,9.940343527E0
8.937083250E0,9.101074219E-2,-4.610412598E-2,9.914782104E0,9.915306991E0
8.947115250E0,9.729766846E-2,-6.421646118E-2,9.896370392E0,9.897057013E0
8.957146250E0,9.415420532E-2,-9.086105347E-2,9.892777863E0,9.893643140E0
8.967177250E0,1.139131165E-1,-1.089733887E-1,9.877509613E0,9.878767512E0
8.977209250E0,1.053808594E-1,-1.202000427E-1,9.893376617E0,9.894667962E0
8.987240250E0,1.065783691E-1,-1.547781372E-1,9.920769653E0,9.922549357E0
8.997272250E0,1.146615601E-1,-1.523831177E-1,9.935888214E0,9.937718173E0
9.007303250E0,1.145118713E-1,-1.496887207E-1,9.939929810E0,9.941716366E0
9.017334250E0,1.222956848E-1,-1.547781372E-1,9.926158447E0,9.928118353E0
9.027366250E0,1.142124939E-1,-1.460961914E-1,9.926607513E0,9.928339504E0
9.037397250E0,1.227447510E-1,-1.248403931E-1,9.933642883E0,9.935185571E0
9.047429250E0,1.194515991E-1,-1.035845947E-1,9.917177124E0,9.918437405E0
9.057460250E0,1.104702759E-1,-9.684860229E-2,9.845925293E0,9.847021286E0
9.067491250E0,8.442443848E-2,-6.391708374E-2,9.833950195E0,9.834520289E0
9.077523250E0,6.586303711E-2,-4.445755005E-2,9.886341248E0,9.886660593E0
9.087554250E0,6.810836792E-2,-3.682342529E-2,9.854008484E0,9.854312656E0
9.097586250E0,5.822891235E-2,-3.278182983E-2,9.884395294E0,9.884621166E0
9.107617250E0,7.155120850E-2,-5.643264771E-2,9.889484711E0,9.889904553E0
9.117648250E0,9.056167603E-2,-6.286926270E-2,9.900861053E0,9.901474817E0
9.127680250E0,1.085243225E-1,-6.197113037E-2,9.875114594E0,9.875905335E0
9.137711250E0,1.212478638E-1,-6.960525513E-2,9.867480469E0,9.868470841E0
9.147742250E0,9.595046997E-2,-7.604187012E-2,9.833950195E0,9.834712263E0
9.157774250E0,1.127156067E-1,-8.786727905E-2,9.802814941E0,9.803856702E0
9.167805250E0,1.154100037E-1,-7.095245361E-2,9.828711090E0,9.829644725E0
9.177837250E0,1.137634277E-1,-7.514373779E-2,9.845476227E0,9.846420204E0
9.187868250E0,1.035845947E-1,-8.322692871E-2,9.862391052E0,9.863286154E0
9.197899250E0,1.185534668E-1,-8.457412720E-2,9.899064789E0,9.900135928E0
9.207931250E0,1.040336609E-1,-7.783813477E-2,9.909243622E0,9.910095405E0
9.217962250E0,7.948471069E-2,-8.711883545E-2,9.900711365E0,9.901413689E0
9.227994250E0,7.185058594E-2,-9.879455566E-2,9.889933777E0,9.890688196E0
9.238025250E0,6.346801758E-2,-9.385482788E-2,9.890083466E0,9.890732424E0
9.248056250E0,6.122268677E-2,-9.340576172E-2,9.901310120E0,9.901939958E0
9.258088250E0,8.891510010E-2,-1.020877075E-1,9.893526306E0,9.894452515E0
9.268119250E0,9.220825195E-2,-1.092727661E-1,9.864337006E0,9.865373154E0
9.278150250E0,9.804611206E-2,-8.966354370E-2,9.833052063E0,9.833949637E0
9.288182250E0,9.041198730E-2,-8.831634521E-2,9.812694397E0,9.813508314E0
9.298213250E0,9.041198730E-2,-8.876541138E-2,9.801168365E0,9.801987296E0
9.308245250E0,1.064286804E-1,-7.529342651E-2,9.795330505E0,9.796198032E0
9.318276250E0,1.064286804E-1,-7.364685059E-2,9.801168365E0,9.802022865E0
9.328307250E0,1.348695374E-1,-6.780899048E-2,9.824669495E0,9.825829152E0
9.338339250E0,1.318757629E-1,-6.361770630E-2,9.862540741E0,9.863627542E0
9.348370250E0,1.342707825E-1,-6.825805664E-2,9.874964905E0,9.876113592E0
9.358402250E0,1.300794983E-1,-4.790039063E-2,9.878407745E0,9.879380279E0
9.368433250E0,1.202000427E-1,-4.849914551E-2,9.865235138E0,9.866086587E0
9.378464250E0,1.082249451E-1,-4.655319214E-2,9.865085449E0,9.865788907E0
9.388496250E0,9.819580078E-2,-4.505630493E-2,9.873318329E0,9.873909424E0
9.398527250E0,1.088237000E-1,-3.742218018E-2,9.876611481E0,9.877281881E0
9.408558250E0,1.035845947E-1,-3.757186890E-2,9.866133270E0,9.866748559E0
9.418590250E0,1.095721436E-1,-3.607498169E-2,9.892628174E0,9.893300746E0
9.428621250E0,1.218466187E-1,-4.670288086E-2,9.930948486E0,9.931805757E0
9.438653250E0,1.170565796E-1,-6.780899048E-2,9.903854828E0,9.904778683E0
9.448684250E0,1.103205872E-1,-6.526428223E-2,9.880802765E0,9.881634143E0
9.458715250E0,1.134640503E-1,-6.451583862E-2,9.889335022E0,9.890196336E0
9.468747833E0,1.115180969E-1,-5.628295898E-2,9.874066772E0,9.874856894E0
9.478778833E0,1.255888367E-1,-5.942642212E-2,9.858648834E0,9.859627827E0
9.488810833E0,1.519340515E-1,-6.571334839E-2,9.832004242E0,9.833397664E0
9.498841833E0,1.498384094E-1,-5.074447632E-2,9.815837860E0,9.817112582E0
9.508872833E0,1.380130005E-1,-3.053649902E-2,9.824070740E0,9.825087581E0
9.518904833E0,1.447489929E-1,-3.772155762E-2,9.834399261E0,9.835536794E0
9.528935833E0,1.465452576E-1,-3.203338623E-2,9.822873230E0,9.824018533E0
9.538966833E0,1.420545959E-1,-2.754272461E-2,9.821526031E0,9.822591903E0
9.548998833E0,1.505868530E-1,-1.721420288E-2,9.825717316E0,9.826886256E0
9.559029833E0,1.627116394E-1,-8.083190918E-3,9.833201752E0,9.834551190E0
9.569061833E0,1.796264648E-1,-2.993774414E-4,9.829309845E0,9.830951011E0
9.579092833E0,1.537303162E-1,7.484436035E-3,9.832602997E0,9.833807539E0
9.589123833E0,1.571731567E-1,7.783813477E-3,9.825268250E0,9.826528388E0
9.599155833E0,1.378633118E-1,-5.837860107E-3,9.817484436E0,9.818454106E0
9.609186833E0,1.350192261E-1,-1.945953369E-3,9.818831635E0,9.819760111E0
9.619218833E0,1.510359192E-1,-5.239105225E-3,9.834848328E0,9.836009400E0
9.629249833E0,1.487905884E-1,-2.320175171E-2,9.872569885E0,9.873718302E0
9.639280833E0,1.341210938E-1,-2.409988403E-2,9.893975372E0,9.894913741E0
9.649312833E0,1.396595764E-1,-2.140548706E-2,9.877958679E0,9.878969109E0
9.659343833E0,1.351689148E-1,-1.676513672E-2,9.851314087E0,9.852255627E0
9.669374833E0,1.356179810E-1,-4.191284180E-3,9.843081207E0,9.844016328E0
9.679406833E0,1.312770081E-1,-5.538482666E-3,9.884095917E0,9.884969217E0
9.689437833E0,1.555265808E-1,1.017883301E-2,9.877958679E0,9.879188215E0
9.699469833E0,1.637594604E-1,1.047821045E-2,9.817933502E0,9.819304721E0
9.709500833E0,1.448986816E-1,1.796264648E-3,9.806557159E0,9.807627755E0
9.719531833E0,1.429527283E-1,-1.302291870E-2,9.841883698E0,9.842930447E0
9.729563833E0,1.568737793E-1,-4.340972900E-3,9.927655334E0,9.928895642E0
9.739594833E0,2.251318359E-1,-1.377136230E-2,9.929601288E0,9.932162691E0
9.749626833E0,2.303709412E-1,-1.616638184E-2,9.885443115E0,9.888140255E0
9.759657833E0,2.007325745E-1,-6.137237549E-3,9.829160156E0,9.831211553E0
9.769688833E0,1.526824951E-1,-1.571731567E-2,9.793983307E0,9.795185960E0
9.779720833E0,1.237925720E-1,-6.885681152E-3,9.745184784E0,9.745973450E0
9.789751833E0,1.146615601E-1,-6.137237549E-3,9.733209686E0,9.733886980E0
9.799782833E0,1.273851013E-1,-1.766326904E-2,9.776170349E0,9.777016194E0
9.809814833E0,1.535806274E-1,-1.930984497E-2,9.806108093E0,9.807329699E0
9.819845833E0,1.886077881E-1,8.981323242E-3,9.857900391E0,9.859708600E0
9.829877833E0,2.136058044E-1,2.993774414E-2,9.900561676E0,9.902910946E0
9.839908833E0,2.158511353E-1,4.161346436E-2,9.866881714E0,9.869330177E0
9.849939833E0,1.984872437E-1,5.613327026E-2,9.881551208E0,9.883703881E0
9.859971833E0,1.627116394E-1,6.706054688E-2,9.886341248E0,9.887907537E0
9.870002833E0,1.558259583E-1,6.436614990E-2,9.882599030E0,9.884037045E0
9.880033833E0,1.336720276E-1,5.942642212E-2,9.874515839E0,9.875599362E0
9.890065833E0,1.263372803E-1,3.802093506E-2,9.887688446E0,9.888568628E0
9.900096833E0,1.423539734E-1,1.960922241E-2,9.899364166E0,9.900407066E0
9.910128833E0,1.502874756E-1,1.511856079E-2,9.895771637E0,9.896924330E0
9.920159833E0,1.673519897E-1,7.484436035E-4,9.876611481E0,9.878029236E0
9.930190833E0,1.700463867E-1,-8.981323242E-4,9.850715332E0,9.852182963E0
9.940222833E0,1.675016785E-1,-4.790039062E-3,9.851763153E0,9.853188163E0
9.950253833E0,1.830693054E-1,-7.334747314E-3,9.836045837E0,9.837752075E0
9.960285833E0,1.993853760E-1,1.796264648E-3,9.838440857E0,9.840461181E0
9.970316833E0,2.065704346E-1,-7.334747314E-3,9.841734009E0,9.843904380E0
9.980347833E0,1.972897339E-1,-1.975891113E-2,9.872420197E0,9.874411081E0
9.990379833E0,2.004331970E-1,-1.990859985E-2,9.871821442E0,9.873876057E0
1.000041083E1,1.960922241E-1,3.742218018E-3,9.867031403E0,9.868980437E0
1.001044183E1,1.814227295E-1,-1.496887207E-4,9.870174866E0,9.871842083E0
1.002047383E1,1.817221069E-1,5.239105225E-3,9.871821442E0,9.873495275E0
1.003050483E1,1.838177490E-1,1.736389160E-2,9.843829651E0,9.845561064E0
1.004053683E1,1.510359192E-1,3.442840576E-2,9.866881714E0,9.868097685E0
1.005056783E1,1.600172424E-1,5.284011841E-2,9.801767120E0,9.803215609E0
1.006059883E1,1.541793823E-1,5.523513794E-2,9.794881439E0,9.796250538E0
1.007063083E1,1.257385254E-1,4.565505981E-2,9.847871246E0,9.848779754E0
1.008066183E1,1.393601990E-1,4.056564331E-2,9.837991791E0,9.839062420E0
1.009069383E1,1.678010559E-1,3.802093506E-2,9.850415955E0,9.851918456E0
1.010072483E1,1.865121460E-1,3.263214111E-2,9.888287201E0,9.890099868E0
1.011075583E1,2.037263489E-1,2.230361938E-2,9.887389069E0,9.889512853E0
1.012078783E1,2.080673218E-1,2.754272461E-2,9.866732025E0,9.868964052E0
1.013081883E1,2.028282166E-1,3.487747192E-2,9.871971130E0,9.874116149E0
1.014084983E1,1.859133911E-1,1.856140137E-2,9.849368134E0,9.851140083E0
1.015088183E1,1.842668152E-1,1.781295776E-2,9.810149689E0,9.811896273E0
1.016091283E1,1.965412903E-1,1.571731567E-2,9.816137238E0,9.818117222E0
1.017094483E1,1.875599670E-1,2.305206299E-2,9.856852570E0,9.858663840E0
1.018097583E1,2.070195007E-1,4.505630493E-2,9.879305878E0,9.881577393E0
1.019100683E1,2.154020691E-1,3.023712158E-2,9.870923309E0,9.873319569E0
1.020103883E1,2.055226135E-1,9.729766846E-3,9.889335022E0,9.891475188E0
1.021106983E1,2.025288391E-1,1.751358032E-2,9.928553467E0,9.930634350E0
1.022110183E1,1.980381775E-1,-3.742218018E-3,9.897118835E0,9.899100685E0
1.023113283E1,1.686991882E-1,-7.783813477E-3,9.851164398E0,9.852611837E0
1.024116383E1,1.484912109E-1,-8.382568359E-3,9.820777588E0,9.821903702E0
1.025119583E1,1.297801208E-1,-3.053649902E-2,9.797126770E0,9.798033900E0
1.026122683E1,1.287322998E-1,-2.799179077E-2,9.785001984E0,9.785888788E0
1.027125783E1,1.504371643E-1,-2.290237427E-2,9.813742218E0,9.814921914E0
1.028128983E1,1.736389160E-1,-2.604583740E-2,9.842632141E0,9.844198105E0
1.029132083E1,1.848655701E-1,-1.197509766E-3,9.856702881E0,9.858436407E0
1.030135283E1,1.989363098E-1,2.395019531E-3,9.862989807E0,9.864996165E0
1.031138383E1,1.889071655E-1,1.766326904E-2,9.865983582E0,9.867807758E0
1.032141483E1,1.953437805E-1,2.709365845E-2,9.861642609E0,9.863614358E0
1.033144683E1,1.929487610E-1,5.179229736E-2,9.828711090E0,9.830741242E0
1.034147783E1,1.782792664E-1,5.568420410E-2,9.837243347E0,9.839016257E0
1.035150983E1,1.749861145E-1,7.185058594E-2,9.832752686E0,9.834572081E0
1.036154083E1,1.612147522E-1,7.813751221E-2,9.826166382E0,9.827799420E0
1.037157183E1,1.498384094E-1,7.214996338E-2,9.839189301E0,9.840594660E0
1.038160383E1,1.546284485E-1,7.274871826E-2,9.871222687E0,9.872701741E0
1.039163483E1,1.601669312E-1,7.514373779E-2,9.881401520E0,9.882985178E0
1.040166583E1,1.698966980E-1,4.355941772E-2,9.898466034E0,9.900019805E0
1.041169783E1,1.707948303E-1,1.451980591E-2,9.907297668E0,9.908780389E0
1.042172883E1,1.818717957E-1,2.694396973E-3,9.882748718E0,9.884422433E0
1.043176083E1,1.734892273E-1,-1.556762695E-2,9.866282959E0,9.867820443E0
1.044179183E1,1.933978271E-1,-2.754272461E-2,9.865085449E0,9.867019420E0
1.045182283E1,2.163002014E-1,-1.841171265E-2,9.846074982E0,9.848467765E0
1.046185446E1,2.134561157E-1,-9.131011963E-3,9.819879456E0,9.822203389E0
1.047188546E1,1.983375549E-1,-1.047821045E-2,9.818382568E0,9.820391226E0
1.048191746E1,1.987866211E-1,7.484436035E-4,9.858499146E0,9.860503135E0
1.049194846E1,2.077679443E-1,-5.388793945E-3,9.865684204E0,9.867873194E0
1.050197946E1,2.017803955E-1,-4.340972900E-3,9.899663544E0,9.901720681E0
1.051201146E1,2.103126526E-1,2.739303589E-2,9.909692688E0,9.911962014E0
1.052204246E1,1.811233521E-1,6.451583862E-2,9.868528290E0,9.870401135E0
1.053207346E1,1.576222229E-1,8.816665649E-2,9.803862762E0,9.805526156E0
1.054210546E1,1.179547119E-1,9.924362183E-2,9.780062256E0,9.781277030E0
1.055213646E1,1.095721436E-1,1.155596924E-1,9.793234863E0,9.794529554E0
1.056216846E1,1.254391479E-1,1.043330383E-1,9.807455292E0,9.808812347E0
1.057219946E1,1.369651794E-1,7.394622803E-2,9.783205719E0,9.784443860E0
1.058223046E1,1.366658020E-1,5.673202515E-2,9.772278442E0,9.773398693E0
1.059226246E1,1.441502380E-1,4.640350342E-2,9.879156189E0,9.880316775E0
1.060229346E1,1.703457642E-1,1.481918335E-2,9.918524323E0,9.919998086E0
1.061232546E1,2.246827698E-1,4.490661621E-3,9.992620239E0,9.995146910E0
1.062235646E1,2.365081787E-1,1.272354126E-2,9.986033936E0,9.988842364E0
1.063238746E1,2.207908630E-1,6.735992432E-3,9.934840393E0,9.937295790E0
1.064241946E1,1.672023010E-1,-2.634521484E-2,9.843081207E0,9.844536471E0
1.065245046E1,1.209484863E-1,-1.706451416E-2,9.796677704E0,9.797439143E0
1.066248146E1,1.149609375E-1,-2.589614868E-2,9.739197235E0,9.739910134E0
1.067251346E1,1.203497314E-1,-1.496887207E-2,9.759405212E0,9.760158719E0
1.068254446E1,1.540296936E-1,2.245330811E-3,9.806407471E0,9.807617329E0
1.069257646E1,1.923500061E-1,5.538482666E-3,9.849667511E0,9.851547050E0
1.070260746E1,2.266287231E-1,3.532653809E-2,9.887838135E0,9.890498042E0
1.071263846E1,2.180964661E-1,7.349716187E-2,9.878707123E0,9.881387672E0
1.072267046E1,2.163002014E-1,1.076261902E-1,9.862091675E0,9.865050500E0
1.073270146E1,1.790277100E-1,1.022373962E-1,9.824070740E0,9.826233729E0
1.074273246E1,1.495390320E-1,1.019380188E-1,9.816137238E0,9.817805434E0
1.075276446E1,1.624122620E-1,8.696914673E-2,9.857151947E0,9.858873459E0
1.076279546E1,1.627116394E-1,7.274871826E-2,9.904303894E0,9.905907484E0
1.077282746E1,1.751358032E-1,5.343887329E-2,9.956694946E0,9.958378508E0
1.078285846E1,2.011816406E-1,4.281097412E-2,9.967173157E0,9.969295239E0
1.079288946E1,1.791773987E-1,1.377136230E-2,9.933792572E0,9.935417910E0
1.080292146E1,1.627116394E-1,8.831634521E-3,9.910141754E0,9.911481356E0
1.081295246E1,1.683998108E-1,5.837860107E-3,9.873168640E0,9.874606401E0
1.082298446E1,1.567240906E-1,1.676513672E-2,9.849368134E0,9.850629226E0
1.083301546E1,1.609153748E-1,1.631607056E-2,9.845476227E0,9.846804665E0
1.084304646E1,1.725910950E-1,2.095642090E-3,9.839638367E0,9.841152131E0
1.085307846E1,1.904040527E-1,-8.232879639E-3,9.827363892E0,9.829211695E0
1.086310946E1,1.872605896E-1,-3.891906738E-3,9.823921051E0,9.825706412E0
1.087314046E1,1.889071655E-1,2.544708252E-3,9.860894165E0,9.862703794E0
1.088317246E1,2.053729248E-1,1.511856079E-2,9.870174866E0,9.872322852E0
1.089320346E1,2.088157654E-1,8.083190918E-3,9.890831909E0,9.893039231E0
1.090323546E1,2.094145203E-1,3.203338623E-2,9.898016968E0,9.900283858E0
1.091326646E1,1.983375549E-1,2.619552612E-2,9.870025177E0,9.872052521E0
1.092329746E1,1.673519897E-1,2.933898926E-2,9.800569611E0,9.802042244E0
1.093332946E1,1.588197327E-1,5.343887329E-2,9.874515839E0,9.875937549E0
1.094336046E1,1.448986816E-1,6.436614990E-2,9.835297394E0,9.836575291E0
1.095339146E1,1.538800049E-1,6.780899048E-2,9.799072723E0,9.800515464E0
1.096342346E1,1.333726501E-1,4.296066284E-2,9.818681946E0,9.819681718E0
1.097345446E1,1.411564636E-1,4.640350342E-2,9.883197784E0,9.884314689E0
1.098348646E1,1.941462708E-1,3.083587646E-2,9.917326813E0,9.919274910E0
1.099351746E1,2.101629639E-1,1.541793823E-2,9.908046112E0,9.910286774E0
1.100354846E1,1.880090332E-1,2.245330811E-3,9.897567902E0,9.899353656E0
1.101358046E1,1.555265808E-1,-1.317260742E-2,9.858948212E0,9.860183663E0
1.102361146E1,1.495390320E-1,-2.290237427E-2,9.860295410E0,9.861455877E0
1.103364346E1,1.652563477E-1,-3.308120728E-2,9.857002258E0,9.858442958E0
1.104367446E1,1.767823792E-1,-2.260299683E-2,9.855205994E0,9.856817340E0
1.105370546E1,1.907034302E-1,1.526824951E-2,9.841734009E0,9.843593308E0
1.106373746E1,1.565744019E-1,4.086502075E-2,9.860594788E0,9.861922483E0
1.107376846E1,1.736389160E-1,5.763015747E-2,9.873168640E0,9.874863579E0
1.108379946E1,1.682501221E-1,6.137237549E-2,9.852361908E0,9.853989539E0
1.109383146E1,1.830693054E-1,6.900650024E-2,9.843530273E0,9.845474316E0
1.110386246E1,1.483415222E-1,6.586303711E-2,9.873318329E0,9.874652296E0
1.111389446E1,1.437011719E-1,4.460723877E-2,9.877509613E0,9.878655576E0
1.112392546E1,1.267863464E-1,4.221221924E-2,9.845625916E0,9.846532705E0
1.113395646E1,9.460327148E-2,2.260299683E-2,9.818831635E0,9.819313384E0
1.114398846E1,8.367599487E-2,9.280700684E-3,9.795929260E0,9.796291026E0
1.115401946E1,8.666976929E-2,8.382568359E-3,9.799222412E0,9.799609268E0
1.116405046E1,1.100212097E-1,2.200424194E-2,9.831255798E0,9.831896024E0
1.117408246E1,1.474433899E-1,1.766326904E-2,9.812844086E0,9.813967628E0
1.118411346E1,1.710942078E-1,1.886077881E-2,9.819430389E0,9.820938964E0
1.119414546E1,1.770817566E-1,4.311035156E-2,9.836345215E0,9.838033525E0
1.120417646E1,1.749861145E-1,4.296066284E-2,9.857601013E0,9.859247613E0
1.121420746E1,1.683998108E-1,5.149291992E-2,9.859696655E0,9.861269094E0
1.122423946E1,1.549278259E-1,6.077362061E-2,9.872270508E0,9.873673128E0
1.123427046E1,1.570234680E-1,6.152206421E-2,9.866432648E0,9.867873860E0
1.124430246E1,1.356179810E-1,6.810836792E-2,9.861343231E0,9.862510903E0
1.125433346E1,1.441502380E-1,7.694000244E-2,9.855655060E0,9.857009471E0
1.126436446E1,1.475930786E-1,7.708969116E-2,9.863438873E0,9.864844294E0
1.127439646E1,1.667532349E-1,7.424560547E-2,9.868079224E0,9.869767303E0
1.128442746E1,1.667532349E-1,7.200027466E-2,9.848470001E0,9.850144773E0
1.129445846E1,1.522334290E-1,7.768844604E-2,9.853559418E0,9.855041538E0
1.130449046E1,1.692979431E-1,5.523513794E-2,9.878108368E0,9.879713439E0
1.131452146E1,1.595681763E-1,5.493576050E-2,9.875563660E0,9.877005494E0
1.132455346E1,1.529818726E-1,5.239105225E-2,9.862540741E0,9.863866288E0
1.133458446E1,1.585203552E-1,4.775070190E-2,9.874515839E0,9.875903598E0
1.134461546E1,1.543290710E-1,5.029541016E-2,9.884994049E0,9.886326640E0
1.135464746E1,1.454974365E-1,5.149291992E-2,9.861343231E0,9.862550955E0
1.136467846E1,1.507365417E-1,5.568420410E-2,9.861343231E0,9.862652410E0
1.137470946E1,1.538800049E-1,5.209167480E-2,9.899513855E0,9.900846790E0
1.138474146E1,1.654060364E-1,5.792953491E-2,9.913734283E0,9.915283275E0
1.139477246E1,1.648072815E-1,6.077362061E-2,9.879605255E0,9.881166676E0
1.140480446E1,1.519340515E-1,7.259902954E-2,9.820777588E0,9.822221083E0
1.141483546E1,1.252894592E-1,7.978408813E-2,9.801168365E0,9.802293827E0
1.142486646E1,9.520202637E-2,9.490264893E-2,9.807604980E0,9.808526158E0
1.143489846E1,9.924362183E-2,7.469467163E-2,9.851014709E0,9.851797775E0
1.144492946E1,1.190025330E-1,8.502319336E-2,9.847871246E0,9.848957236E0
1.145496046E1,1.215472412E-1,8.921447754E-2,9.759704590E0,9.760869154E0
1.146499262E1,1.190025330E-1,9.071136475E-2,9.863588562E0,9.864723487E0
1.147502363E1,1.317260742E-1,9.684860229E-2,9.967173157E0,9.968514039E0
1.148505562E1,1.911524963E-1,7.334747314E-2,1.000429596E1,1.000639080E1
1.149508662E1,2.442919922E-1,8.187973022E-2,9.946216736E0,9.949553268E0
1.150511762E1,1.860630798E-1,9.086105347E-2,9.886640625E0,9.888808727E0
1.151514963E1,1.233435059E-1,6.706054688E-2,9.817035370E0,9.818039223E0
1.152518062E1,9.220825195E-2,7.170089722E-2,9.787397003E0,9.788093966E0
1.153521262E1,1.061293030E-1,6.077362061E-2,9.745035095E0,9.745802474E0
1.154524363E1,1.338217163E-1,4.071533203E-2,9.741592255E0,9.742596453E0
1.155527463E1,1.678010559E-1,4.101470947E-2,9.777966614E0,9.779492344E0
1.156530662E1,1.950444031E-1,3.742218018E-2,9.847422180E0,9.849424670E0
1.157533762E1,2.154020691E-1,6.376739502E-2,9.902807007E0,9.905354660E0
1.158536863E1,2.035766602E-1,7.604187012E-2,9.917925568E0,9.920306114E0
1.159540063E1,1.817221069E-1,8.771759033E-2,9.889784088E0,9.891842427E0
1.160543162E1,1.634600830E-1,1.016386414E-1,9.859696655E0,9.861575318E0
1.161546362E1,1.363664246E-1,1.139131165E-1,9.840686188E0,9.842290213E0
1.162549463E1,1.290316772E-1,1.399589539E-1,9.838740234E0,9.840581643E0
1.163552563E1,1.245410156E-1,1.381626892E-1,9.837991791E0,9.839750092E0
1.164555762E1,1.321751404E-1,1.332229614E-1,9.852810974E0,9.854598049E0
1.165558862E1,1.451980591E-1,1.308279419E-1,9.870324554E0,9.872259379E0
1.166562063E1,1.550775146E-1,1.263372803E-1,9.880054321E0,9.882078908E0
1.167565162E1,1.709445190E-1,1.119671631E-1,9.876910858E0,9.879024586E0
1.168568262E1,1.770817566E-1,1.026864624E-1,9.866133270E0,9.868256592E0
1.169571463E1,1.773811340E-1,8.726852417E-2,9.872719574E0,9.874698560E0
1.170574563E1,1.835183716E-1,7.978408813E-2,9.861343231E0,9.863373399E0
1.171577662E1,1.784289551E-1,6.750961304E-2,9.845326538E0,9.847174675E0
1.172580862E1,1.685494995E-1,5.014572144E-2,9.848020935E0,9.849590848E0
1.173583963E1,1.799258423E-1,5.628295898E-2,9.842183075E0,9.843988458E0
1.174587163E1,1.718426514E-1,4.939727783E-2,9.852062531E0,9.853684899E0
1.175590262E1,1.718426514E-1,5.688171387E-2,9.874066772E0,9.875725799E0
1.176593362E1,1.883084106E-1,6.556365967E-2,9.887389069E0,9.889399438E0
1.177596563E1,1.796264648E-1,8.277786255E-2,9.910890198E0,9.912863479E0
1.178599663E1,1.701960754E-1,8.547225952E-2,9.895621948E0,9.897454519E0
1.179602762E1,1.736389160E-1,1.022373962E-1,9.892777863E0,9.894829801E0
1.180605962E1,1.543290710E-1,1.151106262E-1,9.830207977E0,9.832093205E0
1.181609063E1,1.255888367E-1,1.354682922E-1,9.834099884E0,9.835834725E0
1.182612262E1,1.272354126E-1,1.442999268E-1,9.790839844E0,9.792729761E0
1.183615362E1,1.088237000E-1,1.492396545E-1,9.789941711E0,9.791683910E0
1.184618462E1,1.071771240E-1,1.362167358E-1,9.865085449E0,9.866607971E0
1.185621663E1,1.570234680E-1,1.239422607E-1,9.876012726E0,9.878038541E0
1.186624762E1,1.770817566E-1,1.222956848E-1,9.849368134E0,9.851718978E0
1.187627862E1,1.562750244E-1,9.924362183E-2,9.833351440E0,9.835093885E0
1.188631063E1,1.484912109E-1,8.577163696E-2,9.848619690E0,9.850112497E0
1.189634163E1,1.630110168E-1,7.020401001E-2,9.845176849E0,9.846776548E0
1.190637362E1,1.691482544E-1,6.676116943E-2,9.829908600E0,9.831590475E0
1.191640462E1,1.860630798E-1,6.915618896E-2,9.848020935E0,9.850021238E0
1.192643563E1,1.848655701E-1,6.840774536E-2,9.867181091E0,9.869149790E0
1.193646763E1,1.670526123E-1,7.559280396E-2,9.889933777E0,9.891633382E0
1.194649862E1,1.718426514E-1,8.217910767E-2,9.898166656E0,9.899999316E0
1.195653063E1,1.537303162E-1,9.056167603E-2,9.883347473E0,9.884957850E0
1.196656163E1,1.543290710E-1,7.843688965E-2,9.849667511E0,9.851188755E0
1.197659263E1,1.475930786E-1,7.828720093E-2,9.865684204E0,9.867098734E0
1.198662462E1,1.445993042E-1,7.679031372E-2,9.866582336E0,9.867940652E0
1.199665563E1,1.465452576E-1,8.696914673E-2,9.878108368E0,9.879578132E0
1.200668663E1,1.532812500E-1,8.412506104E-2,9.858199768E0,9.859750242E0
1.201671862E1,1.425036621E-1,8.876541138E-2,9.819430389E0,9.820865530E0
1.202674962E1,1.112187195E-1,8.816665649E-2,9.786049805E0,9.787078918E0
1.203678163E1,1.124162292E-1,8.696914673E-2,9.803563385E0,9.804593622E0
1.204681263E1,1.207987976E-1,9.011260986E-2,9.850715332E0,9.851868106E0
1.205684362E1,1.387614441E-1,9.116043091E-2,9.854158173E0,9.855556720E0
1.206687562E1,1.437011719E-1,9.864486694E-2,9.855056305E0,9.856597568E0
1.207690663E1,1.434017944E-1,1.061293030E-1,9.868677979E0,9.870290398E0
1.208693863E1,1.408570862E-1,9.849517822E-2,9.864037628E0,9.865534975E0
1.209696962E1,1.348695374E-1,9.400451660E-2,9.847721558E0,9.849093690E0
1.210700062E1,1.216969299E-1,8.562194824E-2,9.844727783E0,9.845852243E0
1.211703263E1,1.260379028E-1,7.888595581E-2,9.848919067E0,9.850041388E0
1.212706363E1,1.200503540E-1,7.229965210E-2,9.854906616E0,9.855902990E0
1.213709462E1,1.067280579E-1,8.412506104E-2,9.854307861E0,9.855244864E0
1.214712663E1,1.239422607E-1,8.322692871E-2,9.845326538E0,9.846458401E0
1.215715763E1,1.287322998E-1,7.050338745E-2,9.865235138E0,9.866326928E0
1.216718962E1,1.234931946E-1,5.867797852E-2,9.857451324E0,9.858399479E0
1.217722062E1,1.164578247E-1,6.451583862E-2,9.845625916E0,9.846526006E0
1.218725163E1,1.158590698E-1,6.870712280E-2,9.843380585E0,9.844302176E0
1.219728363E1,1.234931946E-1,5.418731689E-2,9.856253815E0,9.857176375E0
1.220731462E1,1.416055298E-1,5.254074097E-2,9.843679962E0,9.844838640E0
1.221734562E1,1.404080200E-1,4.969665527E-2,9.854307861E0,9.855433405E0
1.222737763E1,1.359173584E-1,6.361770630E-2,9.856553192E0,9.857695551E0
1.223740863E1,1.401086426E-1,6.631210327E-2,9.855954437E0,9.857173307E0
1.224744062E1,1.383123779E-1,4.430786133E-2,9.857002258E0,9.858072176E0
1.225747162E1,1.414558411E-1,5.448669434E-2,9.835746460E0,9.836914505E0
1.226750263E1,1.269360352E-1,6.331832886E-2,9.848020935E0,9.849042507E0
1.227753463E1,1.230441284E-1,7.229965210E-2,9.842931519E0,9.843966069E0
1.228756562E1,1.013392639E-1,5.942642212E-2,9.838740234E0,9.839441577E0
1.229759763E1,9.041198730E-2,5.673202515E-2,9.873917084E0,9.874493983E0
1.230762863E1,8.562194824E-2,6.002517700E-2,9.918224945E0,9.918776144E0
1.231765963E1,9.131011963E-2,4.595443726E-2,9.914931793E0,9.915458729E0
1.232769162E1,7.095245361E-2,4.745132446E-2,9.854307861E0,9.854677534E0
1.233772263E1,4.326004028E-2,4.445755005E-2,9.809101868E0,9.809298005E0
1.234775363E1,1.122665405E-2,4.520599365E-2,9.831106110E0,9.831216454E0
1.235778562E1,2.484832764E-2,2.260299683E-2,9.859546967E0,9.859604187E0
1.236781662E1,5.074447632E-2,1.332229614E-2,9.883048096E0,9.883187348E0
1.237784863E1,8.053253174E-2,2.529739380E-2,9.846524048E0,9.846885867E0
1.238787963E1,7.933502197E-2,1.751358032E-2,9.834099884E0,9.834435485E0
1.239791062E1,8.786727905E-2,3.098556519E-2,9.911488953E0,9.911926857E0
1.240794262E1,1.098715210E-1,1.047821045E-2,9.958042145E0,9.958653770E0
1.241797363E1,1.353186035E-1,3.038681030E-2,9.992919617E0,9.993881976E0
1.242800463E1,1.773811340E-1,3.188369751E-2,9.950857086E0,9.952489005E0
1.243803662E1,1.546284485E-1,4.296066284E-2,9.885143738E0,9.886446394E0
1.244806762E1,1.148112488E-1,4.251159668E-2,9.805808716E0,9.806572971E0
1.245809963E1,9.954299927E-2,3.338058472E-2,9.734856262E0,9.735422411E0
1.246813038E1,8.562194824E-2,2.275268555E-2,9.735904083E0,9.736307160E0
1.247816137E1,1.023870850E-1,6.286926270E-3,9.750124512E0,9.750664112E0
1.248819338E1,1.441502380E-1,-1.257385254E-2,9.821825409E0,9.822891212E0
1.249822438E1,1.558259583E-1,-1.796264648E-2,9.855505371E0,9.856753548E0
1.250825538E1,1.739382935E-1,-2.694396973E-2,9.875863037E0,9.877431409E0
1.251828737E1,1.624122620E-1,-2.095642090E-2,9.877808990E0,9.879166330E0
1.252831837E1,1.245410156E-1,-5.239105225E-3,9.869426422E0,9.870213565E0
1.253835038E1,9.924362183E-2,-5.837860107E-3,9.846823425E0,9.847325269E0
1.254838137E1,7.694000244E-2,1.631607056E-2,9.863738251E0,9.864051817E0
1.255841237E1,7.349716187E-2,3.382965088E-2,9.885293427E0,9.885624533E0
1.256844438E1,5.493576050E-2,5.508544922E-2,9.908345490E0,9.908650901E0
1.257847538E1,6.002517700E-2,6.107299805E-2,9.900861053E0,9.901231364E0
1.258850737E1,6.481521606E-2,5.927673340E-2,9.896220703E0,9.896610478E0
1.259853837E1,5.583389282E-2,3.832031250E-2,9.892478485E0,9.892710268E0
1.260856938E1,6.526428223E-2,2.679428101E-2,9.889035645E0,9.889287302E0
1.261860138E1,7.544311523E-2,1.945953369E-3,9.884994049E0,9.885282131E0
1.262863237E1,7.694000244E-2,-8.981323242E-3,9.874665527E0,9.874969352E0
1.263866337E1,8.891510010E-2,-2.155517578E-2,9.882898407E0,9.883321883E0
1.264869538E1,8.637039185E-2,-4.610412598E-2,9.871372375E0,9.871857880E0
1.265872638E1,8.412506104E-2,-4.984634399E-2,9.866282959E0,9.866767511E0
1.266875837E1,9.385482788E-2,-5.358856201E-2,9.866582336E0,9.867174239E0
1.267878938E1,1.061293030E-1,-6.271957397E-2,9.879904633E0,9.880673698E0
1.268882038E1,1.224453735E-1,-5.508544922E-2,9.912836151E0,9.913745399E0
1.269885237E1,1.351689148E-1,-5.164260864E-2,9.908345490E0,9.909401997E0
1.270888337E1,1.368154907E-1,-4.071533203E-2,9.927655334E0,9.928681517E0
1.271891438E1,1.432521057E-1,-3.098556519E-2,9.948761444E0,9.949840981E0
1.272894638E1,1.167572021E-1,-5.388793945E-3,9.887688446E0,9.888379245E0
1.273897737E1,8.831634521E-2,6.586303711E-3,9.842632141E0,9.843030561E0
1.274900937E1,5.343887329E-2,3.293151855E-2,9.828711090E0,9.828911531E0
1.275904038E1,3.607498169E-2,3.981719971E-2,9.789193268E0,9.789340716E0
1.276907138E1,2.903961182E-2,4.505630493E-2,9.841434631E0,9.841580614E0
1.277910337E1,3.682342529E-2,1.916015625E-2,9.873617706E0,9.873704962E0
1.278913437E1,6.466552734E-2,-1.796264648E-3,9.862989807E0,9.863201954E0
1.279916538E1,7.244934082E-2,-1.796264648E-3,9.853559418E0,9.853825924E0
1.280919738E1,6.990463257E-2,-2.454895020E-2,9.868977356E0,9.869255461E0
1.281922837E1,6.706054688E-2,-2.544708252E-2,9.869426422E0,9.869687055E0
1.282926038E1,7.529342651E-2,-3.233276367E-2,9.877210236E0,9.877550129E0
1.283929138E1,9.969268799E-2,-3.832031250E-2,9.889784088E0,9.890360782E0
1.284932238E1,9.445358276E-2,-1.451980591E-2,9.921368408E0,9.921828632E0
1.285935437E1,9.535171509E-2,-1.945953369E-3,9.934241638E0,9.934699425E0
1.286938538E1,8.681945801E-2,5.089416504E-3,9.933942261E0,9.934322944E0
1.287941738E1,8.532257080E-2,1.676513672E-2,9.922865295E0,9.923246277E0
1.288944837E1,7.185058594E-2,3.053649902E-2,9.857451324E0,9.857760476E0
1.289947937E1,4.879852295E-2,1.302291870E-2,9.832602997E0,9.832732712E0
1.290951138E1,4.311035156E-2,1.616638184E-2,9.859996033E0,9.860103530E0
1.291954238E1,6.825805664E-2,3.667373657E-2,9.873168640E0,9.873472698E0
1.292957337E1,7.813751221E-2,3.876937866E-2,9.885742493E0,9.886127309E0
1.293960537E1,7.619155884E-2,2.679428101E-2,9.884994049E0,9.885323993E0
1.294963638E1,5.942642212E-2,6.586303711E-3,9.857750702E0,9.857932023E0
1.295966838E1,4.415817261E-2,-1.257385254E-2,9.846973114E0,9.847080154E0
1.296969937E1,2.559677124E-2,-2.275268555E-2,9.833351440E0,9.833411078E0
1.297973037E1,4.685256958E-2,-2.799179077E-2,9.857451324E0,9.857602412E0
1.298976238E1,6.361770630E-2,-4.415817261E-2,9.879305878E0,9.879609394E0
1.299979338E1,8.307723999E-2,-3.996688843E-2,9.877060547E0,9.877490786E0
1.300982437E1,1.125659180E-1,-4.505630493E-2,9.866732025E0,9.867476983E0
1.301985638E1,1.002914429E-1,-3.667373657E-2,9.890981598E0,9.891558032E0
1.302988738E1,1.026864624E-1,-1.451980591E-2,9.886640625E0,9.887184543E0
1.303991937E1,1.011895752E-1,-1.002914429E-2,9.869276733E0,9.869800563E0
1.304995037E1,8.502319336E-2,-6.885681152E-3,9.859846344E0,9.860215326E0
1.305998138E1,7.095245361E-2,1.302291870E-2,9.856403503E0,9.856667483E0
1.307001338E1,6.137237549E-2,1.107696533E-2,9.853559418E0,9.853756769E0
1.308004437E1,6.167175293E-2,-2.844085693E-3,9.832902374E0,9.833096186E0
1.309007537E1,6.631210327E-2,-2.395019531E-3,9.795629883E0,9.795854625E0
1.310010738E1,5.583389282E-2,1.122665405E-2,9.795330505E0,9.795496066E0
1.311013838E1,5.643264771E-2,1.377136230E-2,9.795180817E0,9.795353058E0
1.312017037E1,9.280700684E-2,8.382568359E-3,9.802814941E0,9.803257835E0
1.313020137E1,1.110690308E-1,-2.290237427E-2,9.823322296E0,9.823976882E0
1.314023238E1,1.234931946E-1,-2.305206299E-2,9.844727783E0,9.845529295E0
1.315026438E1,1.266366577E-1,-4.730163574E-2,9.878856812E0,9.879781687E0
1.316029537E1,1.305285645E-1,-9.385482788E-2,9.906549225E0,9.907853651E0
1.317032738E1,1.091230774E-1,-1.092727661E-1,9.923164673E0,9.924366252E0
1.318035838E1,9.639953613E-2,-1.275347900E-1,9.930798798E0,9.932085519E0
1.319038938E1,1.053808594E-1,-1.371148682E-1,9.926008759E0,9.927515071E0
1.320042137E1,9.684860229E-2,-1.332229614E-1,9.911339264E0,9.912707703E0
1.321045238E1,8.771759033E-2,-1.270857239E-1,9.882149963E0,9.883356366E0
1.322048338E1,9.759704590E-2,-1.134640503E-1,9.869875488E0,9.871010152E0
1.323051537E1,1.028361511E-1,-1.050814819E-1,9.878258057E0,9.879352187E0
1.324054637E1,1.016386414E-1,-8.711883545E-2,9.879305878E0,9.880212788E0
1.325057838E1,9.026229858E-2,-6.466552734E-2,9.870174866E0,9.870799400E0
1.326060938E1,8.831634521E-2,-4.580474854E-2,9.851314087E0,9.851816436E0
1.327064037E1,7.574249268E-2,-2.874023438E-2,9.840386810E0,9.840720274E0
1.328067237E1,7.185058594E-2,-2.424957275E-2,9.840087433E0,9.840379629E0
1.329070338E1,7.843688965E-2,-3.382965088E-2,9.867929535E0,9.868299250E0
1.330073438E1,8.666976929E-2,-2.365081787E-2,9.868977356E0,9.869386256E0
1.331076637E1,9.939331055E-2,-3.248245239E-2,9.864037628E0,9.864591855E0
1.332079737E1,9.520202637E-2,-4.490661621E-2,9.834698639E0,9.835261936E0
1.333082938E1,7.185058594E-2,-5.149291992E-2,9.852810974E0,9.853207504E0
1.334086038E1,9.834548950E-2,-6.945556641E-2,9.889335022E0,9.890067901E0
1.335089137E1,9.205856323E-2,-8.292755127E-2,9.909243622E0,9.910018210E0
1.336092338E1,1.058299255E-1,-9.175918579E-2,9.895023193E0,9.896014537E0
1.337095438E1,7.828720093E-2,-9.550140381E-2,9.855954437E0,9.856728021E0
1.338098538E1,6.212081909E-2,-7.379653931E-2,9.817334747E0,9.817808639E0
1.339101737E1,5.373825073E-2,-7.798782349E-2,9.811796265E0,9.812253352E0
1.340104838E1,5.658233643E-2,-9.729766846E-2,9.823771362E0,9.824416124E0
1.341108038E1,9.041198730E-2,-1.067280579E-1,9.812844086E0,9.813840953E0
1.342111137E1,9.026229858E-2,-1.204994202E-1,9.759704590E0,9.760865795E0
1.343114237E1,7.035369873E-2,-1.218466187E-1,9.785151672E0,9.786163165E0
1.344117438E1,9.026229858E-2,-1.224453735E-1,9.834998016E0,9.836174365E0
1.345120538E1,1.221459961E-1,-1.483415222E-1,9.948462067E0,9.950317701E0
1.346123737E1,1.663041687E-1,-1.324745178E-1,9.958042145E0,9.960311739E0
1.347126846E1,1.588197327E-1,-1.414558411E-1,9.890083466E0,9.892370010E0
1.348129946E1,9.984237671E-2,-1.206491089E-1,9.815089417E0,9.816338674E0
1.349133146E1,4.236190796E-2,-1.085243225E-1,9.768685913E0,9.769380560E0
1.350136246E1,8.981323242E-3,-9.310638428E-2,9.697883148E0,9.698334239E0
1.351139346E1,2.634521484E-2,-9.131011963E-2,9.690548401E0,9.691014391E0
1.352142546E1,4.370910645E-2,-9.984237671E-2,9.790241089E0,9.790847745E0
1.353145646E1,8.158035278E-2,-8.996292114E-2,9.858798523E0,9.859546490E0
1.354148846E1,1.113684082E-1,-7.933502197E-2,9.878707123E0,9.879653404E0
1.355151946E1,1.049317932E-1,-6.212081909E-2,9.880353699E0,9.881106157E0
1.356155046E1,9.011260986E-2,-5.688171387E-2,9.895921326E0,9.896495071E0
1.357158246E1,7.424560547E-2,-5.433700562E-2,9.909692688E0,9.910119782E0
1.358161346E1,6.870712280E-2,-6.406677246E-2,9.921518097E0,9.921962838E0
1.359164446E1,5.493576050E-2,-8.113128662E-2,9.913285217E0,9.913769415E0
1.360167646E1,5.613327026E-2,-8.532257080E-2,9.899813232E0,9.900340041E0
1.361170746E1,6.855743408E-2,-9.669891357E-2,9.913883972E0,9.914592589E0
1.362173946E1,7.424560547E-2,-1.139131165E-1,9.912087708E0,9.913020293E0
1.363177046E1,9.864486694E-2,-1.228944397E-1,9.890532532E0,9.891787888E0
1.364180146E1,1.172062683E-1,-1.356179810E-1,9.868079224E0,9.869707043E0
1.365183346E1,1.043330383E-1,-1.263372803E-1,9.851014709E0,9.852377241E0
1.366186446E1,1.173559570E-1,-1.311273193E-1,9.852511597E0,9.854082989E0
1.367189546E1,1.080752563E-1,-1.311273193E-1,9.844727783E0,9.846194176E0
1.368192746E1,9.789642334E-2,-1.306782532E-1,9.856253815E0,9.857606189E0
1.369195846E1,1.133143616E-1,-1.242416382E-1,9.886341248E0,9.887771204E0
1.370199046E1,1.321751404E-1,-1.345701599E-1,9.895472260E0,9.897269858E0
1.371202146E1,1.305285645E-1,-1.281335449E-1,9.900411987E0,9.902101465E0
1.372205246E1,1.294807434E-1,-1.273851013E-1,9.896520081E0,9.898186800E0
1.373208446E1,1.134640503E-1,-1.196012878E-1,9.912237396E0,9.913608261E0
1.374211546E1,1.152603149E-1,-1.059796143E-1,9.912836151E0,9.914072684E0
1.375214746E1,1.167572021E-1,-9.280700684E-2,9.874964905E0,9.876091193E0
1.376217846E1,9.430389404E-2,-8.846603394E-2,9.852212219E0,9.853060696E0
1.377220946E1,7.319778442E-2,-6.077362061E-2,9.912087708E0,9.912544278E0
1.378224146E1,8.442443848E-2,-5.254074097E-2,9.843230896E0,9.843733158E0
1.379227246E1,6.571334839E-2,-6.197113037E-2,9.829609222E0,9.830024218E0
1.380230346E1,7.289840698E-2,-6.496490479E-2,9.858648834E0,9.859132388E0
1.381233546E1,9.565109253E-2,-9.295669556E-2,9.854607239E0,9.855509825E0
1.382236646E1,1.363664246E-1,-8.741821289E-2,9.890532532E0,9.891858850E0
1.383239846E1,1.586700439E-1,-7.993377686E-2,9.894274750E0,9.895869765E0
1.384242946E1,1.655557251E-1,-9.954299927E-2,9.891580353E0,9.893466500E0
1.385246046E1,1.633103943E-1,-1.029858398E-1,9.889784088E0,9.891668498E0
1.386249246E1,1.372645569E-1,-9.744735718E-2,9.875114594E0,9.876549285E0
1.387252346E1,1.357676697E-1,-9.265731812E-2,9.844578094E0,9.845950238E0
1.388255446E1,1.419049072E-1,-8.577163696E-2,9.838440857E0,9.839838021E0
1.389258646E1,1.483415222E-1,-6.960525513E-2,9.845925293E0,9.847288712E0
1.390261746E1,1.285826111E-1,-6.526428223E-2,9.817634125E0,9.818693025E0
1.391264946E1,1.392105103E-1,-7.349716187E-2,9.839488678E0,9.840747880E0
1.392268046E1,1.522334290E-1,-7.664062500E-2,9.891879730E0,9.893347937E0
1.393271146E1,1.782792664E-1,-7.200027466E-2,9.924661560E0,9.926523793E0
1.394274346E1,1.561253357E-1,-7.649093628E-2,9.925410004E0,9.926932544E0
1.395277446E1,1.335223389E-1,-8.906478882E-2,9.871671753E0,9.872976448E0
1.396280546E1,1.098715210E-1,-8.397537231E-2,9.828711090E0,9.829683886E0
1.397283746E1,8.637039185E-2,-7.858657837E-2,9.819879456E0,9.820573721E0
1.398286846E1,7.963439941E-2,-8.367599487E-2,9.802066498E0,9.802747112E0
1.399290046E1,1.061293030E-1,-8.532257080E-2,9.794132996E0,9.795079607E0
1.400293146E1,1.043330383E-1,-8.113128662E-2,9.800419922E0,9.801311051E0
1.401296246E1,1.142124939E-1,-8.397537231E-2,9.800719299E0,9.801744495E0
1.402299446E1,1.462458801E-1,-6.900650024E-2,9.813143463E0,9.814475757E0
1.403302546E1,1.502874756E-1,-6.331832886E-2,9.836644592E0,9.837996360E0
1.404305646E1,1.760339355E-1,-7.289840698E-2,9.853110352E0,9.854952345E0
1.405308846E1,1.743873596E-1,-6.167175293E-2,9.849966888E0,9.851703511E0
1.406311946E1,1.438508606E-1,-5.897735596E-2,9.840536499E0,9.841764577E0
1.407315146E1,1.404080200E-1,-5.104385376E-2,9.831106110E0,9.832241211E0
1.408318246E1,1.284329224E-1,-5.119354248E-2,9.811646576E0,9.812620666E0
1.409321346E1,1.278341675E-1,-5.059478760E-2,9.843380585E0,9.844340645E0
1.410324546E1,1.442999268E-1,-6.197113037E-2,9.860594788E0,9.861845287E0
1.411327646E1,1.601669312E-1,-5.912704468E-2,9.879605255E0,9.881080379E0
1.412330746E1,1.460961914E-1,-5.628295898E-2,9.873318329E0,9.874559569E0
1.413333946E1,1.378633118E-1,-7.454498291E-2,9.861941986E0,9.863187263E0
1.414337046E1,1.579216003E-1,-8.622070312E-2,9.860594788E0,9.862236197E0
1.415340246E1,1.522334290E-1,-8.696914673E-2,9.879904633E0,9.881460125E0
1.416343346E1,1.583706665E-1,-7.813751221E-2,9.883946228E0,9.885523748E0
1.417346446E1,1.621128845E-1,-9.580078125E-2,9.882000275E0,9.883794201E0
1.418349646E1,1.698966980E-1,-1.038839722E-1,9.867031403E0,9.869040757E0
1.419352746E1,1.694476318E-1,-8.532257080E-2,9.868079224E0,9.869902735E0
1.420355946E1,1.615141296E-1,-5.822891235E-2,9.844727783E0,9.846224786E0
1.421359046E1,1.618135071E-1,-5.643264771E-2,9.835746460E0,9.837239281E0
1.422362146E1,1.466949463E-1,-5.044509888E-2,9.839937744E0,9.841160446E0
1.423365346E1,1.480421448E-1,-5.298980713E-2,9.837393036E0,9.838649610E0
1.424368446E1,1.558259583E-1,-5.867797852E-2,9.864187317E0,9.865592545E0
1.425371546E1,1.442999268E-1,-4.969665527E-2,9.898915100E0,9.900091534E0
1.426374746E1,1.568737793E-1,-4.445755005E-2,9.895172882E0,9.896516166E0
1.427377846E1,1.315763855E-1,-3.966751099E-2,9.863139496E0,9.864096845E0
1.428381046E1,1.019380188E-1,-3.008743286E-2,9.822873230E0,9.823448229E0
1.429384146E1,9.250762939E-2,-1.871109009E-2,9.828860779E0,9.829313912E0
1.430387246E1,1.103205872E-1,-2.888992310E-2,9.837243347E0,9.837904347E0
1.431390446E1,1.170565796E-1,-4.909790039E-2,9.824819183E0,9.825639156E0
1.432393546E1,1.372645569E-1,-5.553451538E-2,9.816735992E0,9.817852677E0
1.433396646E1,1.405577087E-1,-6.541397095E-2,9.829459534E0,9.830682081E0
1.434399846E1,1.276844788E-1,-8.023315430E-2,9.876312103E0,9.877463310E0
1.435402946E1,1.441502380E-1,-9.774673462E-2,9.904453583E0,9.905984781E0
1.436406146E1,1.877096558E-1,-1.004411316E-1,9.952054596E0,9.954331420E0
1.437409246E1,1.965412903E-1,-8.996292114E-2,9.946516113E0,9.948864488E0
1.438412346E1,1.704954529E-1,-8.367599487E-2,9.867779846E0,9.869607361E0
1.439415546E1,1.378633118E-1,-9.430389404E-2,9.786947937E0,9.788373176E0
1.440418646E1,1.031355286E-1,-8.352630615E-2,9.741592255E0,9.742496253E0
1.441421746E1,9.190887451E-2,-6.810836792E-2,9.713600464E0,9.714274032E0
1.442424946E1,1.173559570E-1,-8.846603394E-2,9.748777313E0,9.749885013E0
1.443428046E1,1.401086426E-1,-9.684860229E-2,9.794731750E0,9.796212541E0
1.444431246E1,1.552272034E-1,-6.840774536E-2,9.858199768E0,9.859659110E0
1.445434346E1,1.866618347E-1,-4.490661621E-2,9.876910858E0,9.878776612E0
1.446437488E1,1.692979431E-1,-9.879455566E-3,9.872270508E0,9.873726975E0
1.447440687E1,1.616638184E-1,1.137634277E-2,9.856702881E0,9.858035113E0
1.448443787E1,1.275347900E-1,1.766326904E-2,9.847871246E0,9.848712870E0
1.449446887E1,1.315763855E-1,2.395019531E-2,9.850266266E0,9.851174116E0
1.450450088E1,1.187031555E-1,-1.347198486E-3,9.863289185E0,9.864003538E0
1.451453187E1,1.091230774E-1,-2.424957275E-2,9.879904633E0,9.880537001E0
1.452456387E1,1.149609375E-1,-5.179229736E-2,9.892328796E0,9.893132339E0
1.453459488E1,1.318757629E-1,-8.966354370E-2,9.896220703E0,9.897505492E0
1.454462588E1,1.284329224E-1,-1.130149841E-1,9.895023193E0,9.896501978E0
1.455465787E1,1.428030396E-1,-1.146615601E-1,9.878258057E0,9.879955578E0
1.456468887E1,1.544787598E-1,-1.074765015E-1,9.871222687E0,9.873016369E0
1.457471988E1,1.463955688E-1,-9.475296021E-2,9.858349457E0,9.859891673E0
1.458475188E1,1.630110168E-1,-9.789642334E-2,9.861043854E0,9.862876973E0
1.459478287E1,1.624122620E-1,-8.921447754E-2,9.856253815E0,9.857995548E0
1.460481487E1,1.586700439E-1,-8.322692871E-2,9.849218445E0,9.850848028E0
1.461484588E1,1.618135071E-1,-7.304809570E-2,9.841434631E0,9.843035875E0
1.462487688E1,1.640588379E-1,-6.706054688E-2,9.843230896E0,9.844826402E0
1.463490887E1,1.658551025E-1,-7.095245361E-2,9.860744476E0,9.862394425E0
1.464493987E1,1.459465027E-1,-5.673202515E-2,9.868079224E0,9.869321480E0
1.465497088E1,1.416055298E-1,-3.487747192E-2,9.887239380E0,9.888314878E0
1.466500287E1,1.312770081E-1,-3.218307495E-2,9.822573853E0,9.823503779E0
1.467503387E1,1.206491089E-1,-5.987548828E-3,9.877958679E0,9.878697269E0
1.468506588E1,1.284329224E-1,8.681945801E-3,9.901609497E0,9.902446214E0
1.469509688E1,1.423539734E-1,-5.987548828E-4,9.837692413E0,9.838722327E0
1.470512787E1,1.213975525E-1,-2.140548706E-2,9.842781830E0,9.843553713E0
1.471515987E1,1.219963074E-1,-3.981719971E-2,9.842632141E0,9.843468696E0
1.472519088E1,1.537303162E-1,-4.535568237E-2,9.879156189E0,9.880456323E0
1.473522188E1,1.974394226E-1,-4.086502075E-2,9.911039886E0,9.913090533E0
1.474525387E1,1.950444031E-1,-6.586303711E-2,9.852212219E0,9.854362784E0
1.475528487E1,1.865121460E-1,-7.783813477E-2,9.822873230E0,9.824952114E0
1.476531688E1,1.570234680E-1,-6.047424316E-2,9.852212219E0,9.853649025E0
1.477534788E1,1.586700439E-1,-6.122268677E-2,9.860894165E0,9.862360678E0
1.478537887E1,1.577719116E-1,-4.550537109E-2,9.846823425E0,9.848192437E0
1.479541087E1,1.332229614E-1,-3.323089600E-2,9.827663269E0,9.828622385E0
1.480544188E1,1.191522217E-1,-2.888992310E-2,9.868977356E0,9.869738899E0
1.481547387E1,1.234931946E-1,-5.194198608E-2,9.910590820E0,9.911496302E0
1.482550487E1,1.519340515E-1,-5.927673340E-2,9.940229187E0,9.941566978E0
1.483553587E1,1.683998108E-1,-4.011657715E-2,9.945318604E0,9.946825120E0
1.484556788E1,1.432521057E-1,-6.271957397E-2,9.913584595E0,9.914817922E0
1.485559887E1,1.213975525E-1,-4.460723877E-2,9.880204010E0,9.881050473E0
1.486562987E1,1.001417542E-1,-5.179229736E-2,9.841584320E0,9.842230070E0
1.487566188E1,1.020877075E-1,-6.256988525E-2,9.801318054E0,9.802049403E0
1.488569288E1,8.816665649E-2,-5.553451538E-2,9.798324280E0,9.798878310E0
1.489572487E1,1.134640503E-1,-5.313949585E-2,9.786199493E0,9.787001503E0
1.490575587E1,1.384620667E-1,-5.029541016E-2,9.820927277E0,9.822032068E0
1.491578688E1,1.683998108E-1,-4.805007935E-2,9.861792297E0,9.863347029E0
1.492581888E1,1.823208618E-1,-5.703140259E-2,9.849517822E0,9.851370200E0
1.493584987E1,1.790277100E-1,-5.104385376E-2,9.865384827E0,9.867141135E0
1.494588087E1,1.733395386E-1,-4.340972900E-2,9.861642609E0,9.863261425E0
1.495591288E1,1.748364258E-1,-3.622467041E-2,9.849667511E0,9.851285707E0
1.496594388E1,1.493893433E-1,-2.544708252E-2,9.832902374E0,9.834070054E0
1.497597587E1,1.351689148E-1,-2.005828857E-2,9.809550934E0,9.810502663E0
1.498600687E1,1.164578247E-1,-1.571731567E-2,9.812395020E0,9.813098669E0
1.499603788E1,1.128652954E-1,-5.134323120E-2,9.807305603E0,9.808089411E0
1.500606987E1,1.067280579E-1,-5.403762817E-2,9.828860779E0,9.829588758E0
1.501610087E1,1.317260742E-1,-7.843688965E-2,9.861941986E0,9.863133571E0
1.502613187E1,1.345701599E-1,-8.247848511E-2,9.875863037E0,9.877124205E0
1.503616388E1,1.402583313E-1,-8.711883545E-2,9.870324554E0,9.871705471E0
1.504619487E1,1.511856079E-1,-1.050814819E-1,9.882449341E0,9.884164314E0
1.505622687E1,1.631607056E-1,-1.001417542E-1,9.864486694E0,9.866344183E0
1.506625788E1,1.478924561E-1,-1.026864624E-1,9.837842102E0,9.839489515E0
1.507628888E1,1.434017944E-1,-9.415420532E-2,9.824519806E0,9.826017429E0
1.508632087E1,1.550775146E-1,-9.026229858E-2,9.839189301E0,9.840825291E0
1.509635187E1,1.568737793E-1,-6.616241455E-2,9.853110352E0,9.854581191E0
1.510638288E1,1.664538574E-1,-5.927673340E-2,9.892029419E0,9.893607362E0
1.511641488E1,1.499880981E-1,-4.311035156E-2,9.905501404E0,9.906730691E0
1.512644587E1,1.330732727E-1,-4.834945679E-2,9.901010742E0,9.902023020E0
1.513647787E1,1.219963074E-1,-2.260299683E-2,9.867330780E0,9.868110798E0
1.514650888E1,8.247848511E-2,-1.302291870E-2,9.808054047E0,9.808409478E0
1.515653988E1,6.496490479E-2,-1.272354126E-2,9.780960388E0,9.781184409E0
1.516657187E1,6.855743408E-2,-3.891906738E-3,9.784552917E0,9.784793869E0
1.517660287E1,5.927673340E-2,-3.203338623E-2,9.746232605E0,9.746465506E0
1.518663488E1,7.244934082E-2,-3.832031250E-2,9.684411163E0,9.684757970E0
1.519666587E1,7.035369873E-2,-4.086502075E-2,9.838291168E0,9.838627582E0
1.520669687E1,1.082249451E-1,-6.316864014E-2,9.976304169E0,9.977091148E0
1.521672888E1,1.800755310E-1,-6.107299805E-2,1.003483246E1,1.003663388E1
1.522675988E1,1.969903564E-1,-5.478607178E-2,9.965526581E0,9.967623927E0
1.523679087E1,1.466949463E-1,-6.002517700E-2,9.937983856E0,9.939247736E0
1.524682287E1,5.867797852E-2,-6.765930176E-2,9.841135254E0,9.841542764E0
1.525685388E1,3.308120728E-2,-6.451583862E-2,9.762548676E0,9.762817898E0
1.526688588E1,4.056564331E-2,-6.765930176E-2,9.706714783E0,9.707035347E0
1.527691687E1,7.664062500E-2,-8.547225952E-2,9.719138947E0,9.719816930E0
1.528694787E1,1.190025330E-1,-8.113128662E-2,9.807904358E0,9.808961810E0
1.529697988E1,1.624122620E-1,-8.487350464E-2,9.861492920E0,9.863195419E0
1.530701088E1,2.092648315E-1,-7.394622803E-2,9.901609497E0,9.904096650E0
1.531704187E1,2.074685669E-1,-5.837860107E-2,9.935588837E0,9.937926182E0
1.532707387E1,1.865121460E-1,-3.847000122E-2,9.920170898E0,9.921998658E0
1.533710488E1,1.471440125E-1,-3.727249146E-2,9.886790314E0,9.887955466E0
1.534713687E1,1.347198486E-1,-3.577560425E-2,9.865684204E0,9.866668848E0
1.535716787E1,1.279838562E-1,-2.933898926E-2,9.873617706E0,9.874490734E0
1.536719887E1,1.330732727E-1,-1.886077881E-2,9.912536774E0,9.913447913E0
1.537723088E1,1.357676697E-1,-3.068618774E-2,9.900561676E0,9.901540082E0
1.538726187E1,1.366658020E-1,-3.562591553E-2,9.911339264E0,9.912345472E0
1.539729287E1,1.408570862E-1,-2.619552612E-2,9.915231171E0,9.916266237E0
1.540732488E1,1.199006653E-1,-1.990859985E-2,9.890831909E0,9.891578660E0
1.541735588E1,1.230441284E-1,-1.841171265E-2,9.862690430E0,9.863475116E0
1.542738787E1,1.136137390E-1,-2.814147949E-2,9.854158173E0,9.854853287E0
1.543741887E1,1.131646729E-1,-2.185455322E-2,9.836195526E0,9.836870757E0
1.544744988E1,1.065783691E-1,-2.380050659E-2,9.843230896E0,9.843836645E0
1.545748188E1,1.216969299E-1,-2.948867798E-2,9.840386810E0,9.841183481E0
1.546751221E1,1.369651794E-1,-3.996688843E-2,9.865684204E0,9.866715848E0
1.547754321E1,1.296304321E-1,-3.397933960E-2,9.873468018E0,9.874377415E0
1.548757521E1,1.233435059E-1,-1.990859985E-2,9.871821442E0,9.872612043E0
1.549760621E1,1.450483704E-1,-1.616638184E-2,9.882299652E0,9.883377297E0
1.550763821E1,1.419049072E-1,-9.131011963E-3,9.867779846E0,9.868804359E0
1.551766921E1,1.517843628E-1,1.451980591E-2,9.868528290E0,9.869706172E0
1.552770021E1,1.511856079E-1,2.110610962E-2,9.835896149E0,9.837080644E0
1.553773221E1,1.272354126E-1,5.059478760E-2,9.801916809E0,9.802873141E0
1.554776321E1,1.202000427E-1,6.346801758E-2,9.829609222E0,9.830549003E0
1.555779421E1,1.318757629E-1,7.768844604E-2,9.782756653E0,9.783953927E0
1.556782621E1,1.203497314E-1,6.197113037E-2,9.769584045E0,9.770521834E0
1.557785721E1,1.116677856E-1,4.834945679E-2,9.838740234E0,9.839492709E0
1.558788921E1,1.466949463E-1,3.128494263E-2,9.896969147E0,9.898105700E0
1.559792021E1,1.778302002E-1,7.334747314E-3,9.870773621E0,9.872378095E0
1.560795121E1,1.749861145E-1,-6.586303711E-3,9.857301636E0,9.858856884E0
1.561798321E1,1.691482544E-1,-2.275268555E-2,9.869725800E0,9.871201354E0
1.562801421E1,1.555265808E-1,-2.604583740E-2,9.873767395E0,9.875026556E0
1.563804621E1,1.676513672E-1,-2.140548706E-2,9.877659302E0,9.879105145E0
1.564807721E1,1.601669312E-1,-2.544708252E-3,9.864786072E0,9.866086568E0
1.565810821E1,1.435514832E-1,1.422042847E-2,9.845326538E0,9.846383290E0
1.566814021E1,1.459465027E-1,3.517684937E-2,9.854756927E0,9.855900359E0
1.567817121E1,1.448986816E-1,3.607498169E-2,9.860744476E0,9.861875007E0
1.568820221E1,1.526824951E-1,3.652404785E-2,9.859097900E0,9.860347730E0
1.569823421E1,1.616638184E-1,4.894821167E-2,9.877509613E0,9.878953754E0
1.570826521E1,1.663041687E-1,3.023712158E-2,9.890682220E0,9.892126472E0
1.571829721E1,1.564247131E-1,5.059478760E-2,9.859247589E0,9.860618213E0
1.572832821E1,1.320254517E-1,4.984634399E-2,9.848320312E0,9.849331366E0
1.573835921E1,1.157093811E-1,3.697311401E-2,9.816137238E0,9.816888812E0
1.574839121E1,8.816665649E-2,3.682342529E-2,9.790091400E0,9.790557642E0
1.575842221E1,7.020401001E-2,1.856140137E-2,9.805359650E0,9.805628536E0
1.576845321E1,8.876541138E-2,1.451980591E-2,9.832602997E0,9.833014381E0
1.577848521E1,1.242416382E-1,1.272354126E-2,9.863588562E0,9.864379210E0
1.578851621E1,1.507365417E-1,3.143463135E-2,9.866582336E0,9.867783776E0
1.579854821E1,1.531315613E-1,1.601669312E-2,9.868378601E0,9.869579628E0
1.580857921E1,1.357676697E-1,2.963836670E-2,9.880802765E0,9.881779929E0
1.581861021E1,1.252894592E-1,2.918930054E-2,9.876162415E0,9.877000228E0
1.582864221E1,1.297801208E-1,2.829116821E-2,9.857750702E0,9.858645555E0
1.583867321E1,1.190025330E-1,3.981719971E-2,9.832902374E0,9.833703072E0
1.584870421E1,1.065783691E-1,4.236190796E-2,9.836345215E0,9.837013808E0
1.585873621E1,1.155596924E-1,4.715194702E-2,9.840536499E0,9.841327956E0
1.586876721E1,1.176553345E-1,4.610412598E-2,9.823621674E0,9.824434394E0
1.587879921E1,1.300794983E-1,4.924758911E-2,9.837393036E0,9.838376276E0
1.588883021E1,1.408570862E-1,4.176315308E-2,9.861792297E0,9.862886606E0
1.589886121E1,1.633103943E-1,2.709365845E-2,9.868827667E0,9.870216000E0
1.590889321E1,1.613644409E-1,3.936813354E-2,9.857002258E0,9.858401587E0
1.591892421E1,1.571731567E-1,2.080673218E-2,9.866133270E0,9.867407057E0
1.592895521E1,1.669029236E-1,1.437011719E-2,9.858948212E0,9.860371338E0
1.593898721E1,1.651066589E-1,3.053649902E-2,9.855056305E0,9.856486568E0
1.594901821E1,1.721420288E-1,1.901046753E-2,9.868677979E0,9.870197532E0
1.595905021E1,1.577719116E-1,2.335144043E-2,9.868228912E0,9.869517675E0
1.596908121E1,1.374142456E-1,2.814147949E-2,9.854158173E0,9.855156412E0
1.597911221E1,1.408570862E-1,2.888992310E-2,9.872569885E0,9.873616940E0
1.598914421E1,1.281335449E-1,2.200424194E-2,9.898316345E0,9.899170110E0
1.599917521E1,1.323248291E-1,1.227447510E-2,9.926457825E0,9.927347353E0
1.600920621E1,1.362167358E-1,2.724334717E-2,9.873468018E0,9.874445194E0
1.601923821E1,1.167572021E-1,3.367996216E-2,9.795779572E0,9.796533264E0
1.602926921E1,6.975494385E-2,4.565505981E-2,9.777068481E0,9.777423905E0
1.603930121E1,5.119354248E-2,5.882766724E-2,9.788295135E0,9.788605781E0
1.604933221E1,8.622070312E-2,5.343887329E-2,9.816137238E0,9.816661346E0
1.605936321E1,1.101708984E-1,3.592529297E-2,9.838291168E0,9.838973593E0
1.606939521E1,1.194515991E-1,4.909790039E-2,9.794881439E0,9.795732831E0
1.607942621E1,1.184037781E-1,3.802093506E-2,9.870174866E0,9.870958258E0
1.608945721E1,1.116677856E-1,2.439926147E-2,9.960437164E0,9.961092988E0
1.609948921E1,1.463955688E-1,2.993774414E-4,1.002001328E1,1.002108267E1
1.610952021E1,1.892065430E-1,2.694396973E-3,9.989776154E0,9.991568144E0
1.611955221E1,1.758842468E-1,1.511856079E-2,9.932894440E0,9.934463035E0
1.612958321E1,1.161584473E-1,1.990859985E-2,9.846823425E0,9.847528660E0
1.613961421E1,7.259902954E-2,2.544708252E-3,9.785451050E0,9.785720686E0
1.614964621E1,6.586303711E-2,1.032852173E-2,9.755064240E0,9.755292048E0
1.615967721E1,8.247848511E-2,-4.490661621E-4,9.745933228E0,9.746282234E0
1.616970821E1,1.393601990E-1,-2.080673218E-2,9.754166107E0,9.755183783E0
1.617974021E1,1.670526123E-1,-8.981323242E-3,9.813592529E0,9.815018368E0
1.618977121E1,1.869612122E-1,-8.681945801E-3,9.881401520E0,9.883173876E0
1.619980321E1,2.059716797E-1,1.377136230E-2,9.866881714E0,9.869040923E0
1.620983421E1,1.775308228E-1,3.906875610E-2,9.864037628E0,9.865712437E0
1.621986521E1,1.547781372E-1,4.909790039E-2,9.847422180E0,9.848760860E0
1.622989721E1,1.155596924E-1,4.984634399E-2,9.859097900E0,9.859901121E0
1.623992821E1,1.092727661E-1,7.005432129E-2,9.876910858E0,9.877763727E0
1.624995921E1,1.065783691E-1,8.517288208E-2,9.876910858E0,9.877853080E0
1.625999121E1,1.002914429E-1,8.083190918E-2,9.868977356E0,9.869817943E0
1.627002221E1,1.073268127E-1,7.634124756E-2,9.875863037E0,9.876741252E0
1.628005421E1,1.103205872E-1,7.334747314E-2,9.893077240E0,9.893964209E0
1.629008521E1,1.206491089E-1,6.735992432E-2,9.882449341E0,9.883415328E0
1.630011621E1,1.218466187E-1,4.430786133E-2,9.875114594E0,9.875965675E0
1.631014821E1,1.323248291E-1,3.667373657E-2,9.864486694E0,9.865442340E0
1.632017921E1,1.347198486E-1,1.841171265E-2,9.846074982E0,9.847013810E0
1.633021121E1,1.372645569E-1,1.182540894E-2,9.846673737E0,9.847637538E0
1.634024221E1,1.224453735E-1,-7.035369873E-3,9.846524048E0,9.847287860E0
1.635027321E1,1.305285645E-1,-1.302291870E-2,9.849667511E0,9.850540969E0
1.636030521E1,1.275347900E-1,-1.451980591E-2,9.864636383E0,9.865471449E0
1.637033621E1,1.281335449E-1,-1.197509766E-2,9.878108368E0,9.878946631E0
1.638036721E1,1.411564636E-1,-9.580078125E-3,9.892628174E0,9.893639831E0
1.639039921E1,1.353186035E-1,3.143463135E-3,9.889933777E0,9.890859979E0
1.640043021E1,1.312770081E-1,2.095642090E-3,9.892179108E0,9.893050366E0
1.641046221E1,1.528321838E-1,2.544708252E-2,9.897268524E0,9.898481170E0
1.642049321E1,1.297801208E-1,4.655319214E-2,9.831704865E0,9.832671591E0
1.643052421E1,8.981323242E-2,6.960525513E-2,9.828860779E0,9.829517563E0
1.644055621E1,7.140151978E-2,8.906478882E-2,9.795629883E0,9.796294989E0
1.645058721E1,5.448669434E-2,9.160949707E-2,9.805958405E0,9.806537683E0
1.646061821E1,6.691085815E-2,6.286926270E-2,9.863139496E0,9.863566815E0
1.647065096E1,1.059796143E-1,4.655319214E-2,9.869426422E0,9.870105206E0
1.648068196E1,1.363664246E-1,4.131408691E-2,9.860894165E0,9.861923564E0
1.649071396E1,1.321751404E-1,2.424957275E-2,9.864037628E0,9.864952947E0
1.650074496E1,1.179547119E-1,5.538482666E-3,9.847871246E0,9.848579191E0
1.651077596E1,1.166075134E-1,-3.891906738E-3,9.851613464E0,9.852304315E0
1.652080796E1,1.222956848E-1,-2.844085693E-3,9.844578094E0,9.845338094E0
