"Time (s)","Acceleration x (m/s^2)","Acceleration y (m/s^2)","Acceleration z (m/s^2)","Absolute acceleration (m/s^2)"
1.340566666E-2,1.595681763E-1,8.928932190E-1,9.752070465E0,9.794161458E0
2.343466665E-2,1.493893433E-1,9.081614685E-1,9.960586853E0,1.000301779E1
3.346366667E-2,1.645079041E-1,9.225315857E-1,1.002076172E1,1.006448175E1
4.349366666E-2,1.691482544E-1,9.747729492E-1,9.992470551E0,1.004132766E1
5.352266665E-2,1.351689148E-1,9.794132996E-1,9.891580353E0,9.940869324E0
6.355166667E-2,9.370513916E-2,9.930349731E-1,9.794432373E0,9.845090382E0
7.358166666E-2,8.861572266E-2,9.786648560E-1,9.753118286E0,9.802497332E0
8.361066665E-2,7.319778442E-2,9.550140381E-1,9.719588013E0,9.766667849E0
9.363966667E-2,5.478607178E-2,9.401948547E-1,9.749226379E0,9.794609889E0
1.036686667E-1,8.038284302E-2,9.166937256E-1,9.795779572E0,9.838906758E0
1.136986667E-1,7.768844604E-2,8.771759033E-1,9.833800507E0,9.873150736E0
1.237276667E-1,7.828720093E-2,8.345146179E-1,9.843081207E0,9.878703922E0
1.337566667E-1,8.681945801E-2,8.307723999E-1,9.825717316E0,9.861158206E0
1.437866667E-1,1.178050232E-1,8.276289368E-1,9.819430389E0,9.854951083E0
1.538156667E-1,1.212478638E-1,8.152047729E-1,9.802665253E0,9.837250933E0
1.638446667E-1,1.457968140E-1,8.318202209E-1,9.783355408E0,9.819736484E0
1.738746667E-1,1.573228455E-1,8.433462524E-1,9.802066498E0,9.839537134E0
1.839036667E-1,1.471440125E-1,8.529263306E-1,9.815688171E0,9.853774351E0
1.939326667E-1,1.333726501E-1,8.801696777E-1,9.795929260E0,9.836295898E0
2.039626667E-1,1.300794983E-1,8.922944641E-1,9.801018677E0,9.842412163E0
2.139916667E-1,1.279838562E-1,8.978329468E-1,9.842183075E0,9.883878366E0
2.240206667E-1,1.188528442E-1,8.984317017E-1,9.857900391E0,9.899469967E0
2.340506667E-1,1.094224548E-1,9.195378113E-1,9.867330780E0,9.910688159E0
2.440796667E-1,8.068222046E-2,9.036708069E-1,9.856553192E0,9.898220617E0
2.541086667E-1,5.254074097E-2,9.077124023E-1,9.859097900E0,9.900934993E0
2.641386667E-1,6.586303711E-2,9.020242310E-1,9.847571869E0,9.889017007E0
2.741676667E-1,5.254074097E-2,8.699908447E-1,9.812095642E0,9.850729186E0
2.841966667E-1,4.715194702E-2,8.448431396E-1,9.806856537E0,9.843293065E0
2.942266667E-1,3.607498169E-2,8.472381592E-1,9.810299377E0,9.846882135E0
3.042556667E-1,5.553451538E-2,8.512797546E-1,9.804461517E0,9.841505319E0
3.142846667E-1,3.233276367E-2,8.571176147E-1,9.798623657E0,9.836092801E0
3.243146667E-1,-3.293151855E-3,8.904981995E-1,9.763446808E0,9.803973249E0
3.343436667E-1,-7.334747314E-3,9.256750488E-1,9.766590271E0,9.810362563E0
3.443726667E-1,2.993774414E-2,9.466314697E-1,9.802365875E0,9.848014224E0
3.544026667E-1,4.595443726E-2,9.360035706E-1,9.846524048E0,9.891018669E0
3.644316667E-1,6.301895142E-2,9.265731812E-1,9.851164398E0,9.894844579E0
3.744606667E-1,9.131011963E-2,9.063652039E-1,9.798473969E0,9.840727998E0
3.844906667E-1,9.220825195E-2,9.000782776E-1,9.789792023E0,9.831514182E0
3.945196667E-1,9.310638428E-2,8.720864868E-1,9.829010468E0,9.868062141E0
4.045486667E-1,9.610015869E-2,8.672964478E-1,9.811047821E0,9.849776531E0
4.145786667E-1,6.331832886E-2,8.578660583E-1,9.777218170E0,9.814985407E0
4.246076667E-1,5.388793945E-2,8.586145020E-1,9.716743927E0,9.754754498E0
4.346366667E-1,4.505630493E-2,8.602610779E-1,9.679022369E0,9.717281164E0
4.446666667E-1,7.349716187E-2,8.527766418E-1,9.710457001E0,9.748107765E0
4.546956667E-1,8.517288208E-2,8.613088989E-1,9.826316071E0,9.864359835E0
4.647246667E-1,9.026229858E-2,8.692424011E-1,9.946216736E0,9.984535893E0
4.747546667E-1,9.475296021E-2,8.842112732E-1,9.976902924E0,1.001645644E1
4.847836667E-1,1.029858398E-1,9.159452820E-1,9.898915100E0,9.941734356E0
4.948126667E-1,1.037342834E-1,9.544152832E-1,9.829010468E0,9.875784329E0
5.048426667E-1,1.104702759E-1,9.747729492E-1,9.788444824E0,9.837481286E0
5.148716667E-1,1.267863464E-1,9.774673462E-1,9.776918793E0,9.826477409E0
5.249006667E-1,1.320254517E-1,9.506730652E-1,9.760003967E0,9.807083534E0
5.349306667E-1,1.528321838E-1,9.113049316E-1,9.768236847E0,9.811844141E0
5.449596667E-1,1.805245972E-1,8.593629456E-1,9.767039337E0,9.806434174E0
5.549886667E-1,2.192939758E-1,8.246351624E-1,9.780361633E0,9.817514282E0
5.650186667E-1,2.510279846E-1,7.581733704E-1,9.811646576E0,9.844097238E0
5.750476667E-1,2.525248718E-1,7.054829407E-1,9.813891907E0,9.842456469E0
5.850766667E-1,2.466870117E-1,6.662644958E-1,9.834698639E0,9.860327590E0
5.951066667E-1,2.447410583E-1,6.761439514E-1,9.852511597E0,9.878717204E0
6.051354167E-1,2.320175171E-1,7.041357422E-1,9.883048096E0,9.910816260E0
6.151644167E-1,1.957928467E-1,7.294331360E-1,9.919272766E0,9.947983703E0
6.251944167E-1,1.336720276E-1,7.810757446E-1,9.940678253E0,9.972212977E0
6.352234167E-1,7.619155884E-2,8.268804932E-1,9.911339264E0,9.946063669E0
6.452524167E-1,4.086502075E-2,8.725355530E-1,9.862091675E0,9.900698988E0
6.552824167E-1,-2.230361938E-2,8.975335693E-1,9.816286926E0,9.857258898E0
6.653114167E-1,-4.400848389E-2,9.282197571E-1,9.806706848E0,9.850635912E0
6.753404167E-1,-2.679428101E-2,9.386979675E-1,9.782606964E0,9.827577058E0
6.853704167E-1,3.832031250E-2,9.418414307E-1,9.792336731E0,9.837600946E0
6.953994167E-1,9.056167603E-2,9.282197571E-1,9.820478210E0,9.864663482E0
7.054284167E-1,1.445993042E-1,9.181906128E-1,9.854307861E0,9.898048615E0
7.154584167E-1,1.833686829E-1,8.872050476E-1,9.830507355E0,9.872164490E0
7.254874167E-1,2.233355713E-1,8.628057861E-1,9.754166107E0,9.794798061E0
7.355164167E-1,2.450404358E-1,8.193960571E-1,9.693991241E0,9.731645334E0
7.455464167E-1,2.354603577E-1,7.930508423E-1,9.699829102E0,9.735042672E0
7.555754167E-1,2.210902405E-1,7.649093628E-1,9.763895874E0,9.796306950E0
7.656044167E-1,2.158511353E-1,7.441026306E-1,9.810598755E0,9.841144668E0
7.756344167E-1,1.919009399E-1,7.235952759E-1,9.859996033E0,9.888373873E0
7.856634167E-1,1.772314453E-1,7.244934082E-1,9.895621948E0,9.923690615E0
7.956924167E-1,1.746867371E-1,7.420069885E-1,9.926757202E0,9.955983044E0
8.057224167E-1,1.420545959E-1,7.469467163E-1,9.929601288E0,9.958669120E0
8.157514167E-1,1.026864624E-1,7.704478455E-1,9.909093933E0,9.939531024E0
8.257804167E-1,8.292755127E-2,7.902067566E-1,9.864636383E0,9.896582979E0
8.358104167E-1,5.059478760E-2,8.282276917E-1,9.836644592E0,9.871580308E0
8.458394167E-1,3.802093506E-2,8.508306885E-1,9.801467743E0,9.838400702E0
8.558684167E-1,3.817062378E-2,8.839118958E-1,9.783056030E0,9.822980328E0
8.658984167E-1,2.963836670E-2,9.110055542E-1,9.782008209E0,9.824382635E0
8.759274167E-1,4.520599365E-2,9.081614685E-1,9.804012451E0,9.846088613E0
8.859564167E-1,7.993377686E-2,9.148974609E-1,9.825268250E0,9.868096217E0
8.959864167E-1,9.355545044E-2,9.101074219E-1,9.835297394E0,9.877759005E0
9.060154167E-1,1.017883301E-1,8.916957092E-1,9.834848328E0,9.875713834E0
9.160444167E-1,1.255888367E-1,8.792715454E-1,9.811347198E0,9.851468157E0
9.260744167E-1,1.299298096E-1,8.569679260E-1,9.798923035E0,9.837182951E0
9.361034167E-1,1.294807434E-1,8.472381592E-1,9.807155914E0,9.844535788E0
9.461324167E-1,1.166075134E-1,8.337661743E-1,9.813891907E0,9.849935924E0
9.561624167E-1,1.089733887E-1,8.204438782E-1,9.820178833E0,9.854994453E0
9.661914167E-1,9.490264893E-2,8.054750061E-1,9.808652802E0,9.842127122E0
9.762204167E-1,1.011895752E-1,8.059240723E-1,9.808503113E0,9.842077334E0
9.862504167E-1,1.059796143E-1,7.997868347E-1,9.803114319E0,9.836256453E0
9.962794167E-1,8.382568359E-2,7.879614258E-1,9.822424164E0,9.854335412E0
1.006308417E0,9.894424438E-2,7.840695190E-1,9.840686188E0,9.872368491E0
1.016338417E0,9.370513916E-2,7.765850830E-1,9.858199768E0,9.889184380E0
1.026367417E0,8.816665649E-2,7.780819702E-1,9.846524048E0,9.877612097E0
1.036396417E0,1.083746338E-1,7.725434875E-1,9.835447083E0,9.866336089E0
1.046426417E0,1.207987976E-1,7.806266785E-1,9.840237122E0,9.871891256E0
1.056455417E0,1.303788757E-1,7.840695190E-1,9.844578094E0,9.876612857E0
1.066485417E0,1.404080200E-1,7.933502197E-1,9.841883698E0,9.874806008E0
1.076514417E0,1.553768921E-1,7.860154724E-1,9.839189301E0,9.871758121E0
1.086543417E0,1.562750244E-1,7.665559387E-1,9.825417938E0,9.856513965E0
1.096573417E0,1.507365417E-1,7.782316589E-1,9.811796265E0,9.843765131E0
1.106602417E0,1.710942078E-1,7.804769897E-1,9.805060272E0,9.837561919E0
1.116631417E0,1.585203552E-1,7.767347717E-1,9.808353424E0,9.840337520E0
1.126661417E0,1.429527283E-1,7.782316589E-1,9.798024902E0,9.829922278E0
1.136690417E0,1.615141296E-1,7.679031372E-1,9.804910583E0,9.836261159E0
1.146719417E0,1.405577087E-1,7.676037598E-1,9.803862762E0,9.834871482E0
1.156749417E0,1.302291870E-1,7.611671448E-1,9.825867004E0,9.856165454E0
1.166778417E0,1.202000427E-1,7.628137207E-1,9.827363892E0,9.857657626E0
1.176807417E0,1.061293030E-1,7.605683899E-1,9.822873230E0,9.852845589E0
1.186837417E0,8.876541138E-2,7.577243042E-1,9.826316071E0,9.855887222E0
1.196866417E0,8.427474976E-2,7.295828247E-1,9.857750702E0,9.885071686E0
1.206895417E0,8.232879639E-2,7.348219299E-1,9.875114594E0,9.902758683E0
1.216925417E0,7.993377686E-2,7.247927856E-1,9.877659302E0,9.904537711E0
1.226954417E0,8.607101440E-2,7.111711121E-1,9.853110352E0,9.879117176E0
1.236983417E0,7.574249268E-2,7.143145752E-1,9.792785797E0,9.819095473E0
1.247013417E0,5.433700562E-2,7.197033691E-1,9.770931244E0,9.797551879E0
1.257042417E0,4.894821167E-2,6.966513062E-1,9.789642334E0,9.814520671E0
1.267071417E0,5.792953491E-2,6.962022400E-1,9.860594788E0,9.885311475E0
1.277101417E0,6.900650024E-2,6.985972595E-1,9.881700897E0,9.906604497E0
1.287130417E0,1.050814819E-1,6.950047302E-1,9.848320312E0,9.873372609E0
1.297159417E0,1.549278259E-1,6.939569092E-1,9.784403229E0,9.810205164E0
1.307189417E0,1.675016785E-1,6.783892822E-1,9.741143188E0,9.766173224E0
1.317218417E0,1.779798889E-1,6.718029785E-1,9.768536224E0,9.793227050E0
1.327247417E0,1.549278259E-1,6.520440674E-1,9.781110077E0,9.804043984E0
1.337277417E0,1.481918335E-1,6.288423157E-1,9.785900116E0,9.807203707E0
1.347306417E0,1.431024170E-1,6.185137939E-1,9.753417664E0,9.774057179E0
1.357335417E0,1.345701599E-1,6.014492798E-1,9.774972839E0,9.794383307E0
1.367365417E0,1.380130005E-1,6.158193970E-1,9.849218445E0,9.869416654E0
1.377394417E0,1.254391479E-1,6.206094360E-1,9.948162689E0,9.968291325E0
1.387423417E0,1.243913269E-1,6.509962463E-1,9.998757477E0,1.002069960E1
1.397453417E0,1.154100037E-1,6.789880371E-1,9.922565918E0,9.946439495E0
1.407482417E0,1.152603149E-1,7.161108398E-1,9.831704865E0,9.858423820E0
1.417511417E0,1.411564636E-1,7.249424744E-1,9.776170349E0,9.804028429E0
1.427541417E0,1.513352966E-1,7.261399841E-1,9.770033112E0,9.798149246E0
1.437570417E0,1.513352966E-1,7.060816956E-1,9.797875214E0,9.824449727E0
1.447600417E0,1.621128845E-1,6.864724731E-1,9.818681946E0,9.843984975E0
1.457629417E0,1.796264648E-1,6.628216553E-1,9.835596771E0,9.859541676E0
1.467658417E0,1.775308228E-1,6.301895142E-1,9.872869263E0,9.894554234E0
1.477688417E0,1.703457642E-1,5.990542603E-1,9.891730042E0,9.911317112E0
1.487717417E0,1.534309387E-1,5.674699402E-1,9.894723816E0,9.912170427E0
1.497746417E0,1.561253357E-1,5.569917297E-1,9.876761169E0,9.893686174E0
1.507776417E0,1.422042847E-1,5.599855042E-1,9.838590546E0,9.855540054E0
1.517805417E0,1.543290710E-1,5.638774109E-1,9.805359650E0,9.822772168E0
1.527834417E0,1.550775146E-1,5.770500183E-1,9.810598755E0,9.828778342E0
1.537864417E0,1.480421448E-1,5.888754272E-1,9.812694397E0,9.831462865E0
1.547893417E0,1.531315613E-1,5.881269836E-1,9.835297394E0,9.854055888E0
1.557922417E0,1.643582153E-1,6.111790466E-1,9.824370117E0,9.844734717E0
1.567952417E0,1.496887207E-1,6.165678406E-1,9.847122803E0,9.867542253E0
1.577981417E0,1.619631958E-1,6.213578796E-1,9.858648834E0,9.879538174E0
1.588010417E0,1.745370483E-1,6.225553894E-1,9.879006500E0,9.900141808E0
1.598040417E0,1.627116394E-1,6.273454285E-1,9.882449341E0,9.903678223E0
1.608069458E0,1.612147522E-1,6.183641052E-1,9.915680237E0,9.936250748E0
1.618098458E0,1.600172424E-1,6.165678406E-1,9.885143738E0,9.905646276E0
1.628128458E0,1.866618347E-1,6.126759338E-1,9.807006226E0,9.827898328E0
1.638157458E0,2.224374390E-1,5.990542603E-1,9.779912567E0,9.800767023E0
1.648186458E0,2.195933533E-1,5.852828979E-1,9.776769104E0,9.796733712E0
1.658216458E0,1.769320679E-1,5.795947266E-1,9.775421906E0,9.794187482E0
1.668245458E0,1.576222229E-1,5.595364380E-1,9.793983307E0,9.811219843E0
1.678274458E0,1.510359192E-1,5.367837524E-1,9.831405487E0,9.847206837E0
1.688304458E0,1.487905884E-1,5.287005615E-1,9.865235138E0,9.880512499E0
1.698333458E0,1.803749084E-1,5.309458923E-1,9.882299652E0,9.898196051E0
1.708363458E0,1.739382935E-1,5.403762817E-1,9.870773621E0,9.887084147E0
1.718392458E0,1.751358032E-1,5.448669434E-1,9.853709106E0,9.870315886E0
1.728421458E0,1.770817566E-1,5.523513794E-1,9.830207977E0,9.847306173E0
1.738451458E0,1.776805115E-1,5.590873718E-1,9.847721558E0,9.865179620E0
1.748480458E0,1.694476318E-1,5.421725464E-1,9.847422180E0,9.863791724E0
1.758509458E0,1.661544800E-1,5.260061646E-1,9.842183075E0,9.857629405E0
1.768539458E0,1.570234680E-1,5.155279541E-1,9.822723541E0,9.837495779E0
1.778568458E0,1.495390320E-1,5.102888489E-1,9.819729767E0,9.834116601E0
1.788597458E0,1.371148682E-1,5.008584595E-1,9.832303619E0,9.846007015E0
1.798627458E0,1.471440125E-1,4.737648010E-1,9.859097900E0,9.871571094E0
1.808656458E0,1.639091492E-1,4.920268250E-1,9.869576111E0,9.883192258E0
1.818685458E0,1.531315613E-1,4.825964355E-1,9.859846344E0,9.872837410E0
1.828715458E0,1.627116394E-1,4.909790039E-1,9.839488678E0,9.853074287E0
1.838744458E0,1.531315613E-1,4.945715332E-1,9.830058289E0,9.843683062E0
1.848773458E0,1.600172424E-1,4.929249573E-1,9.824669495E0,9.838328680E0
1.858803458E0,1.727407837E-1,5.068460083E-1,9.829758911E0,9.844333015E0
1.868832458E0,1.661544800E-1,5.192701721E-1,9.845625916E0,9.860709837E0
1.878861458E0,1.600172424E-1,5.116360474E-1,9.840237122E0,9.854828439E0
1.888891458E0,1.550775146E-1,4.966671753E-1,9.854457550E0,9.868184277E0
1.898920458E0,1.745370483E-1,4.956193542E-1,9.859247589E0,9.873239830E0
1.908950458E0,1.646575928E-1,4.897814941E-1,9.846374359E0,9.859923228E0
1.918979458E0,1.537303162E-1,4.876858521E-1,9.849817200E0,9.863081130E0
1.929008458E0,1.594184875E-1,4.718188477E-1,9.849817200E0,9.862399614E0
1.939037458E0,1.465452576E-1,4.888833618E-1,9.852062531E0,9.865273365E0
1.949067458E0,1.555265808E-1,4.632865906E-1,9.836794281E0,9.848926069E0
1.959096458E0,1.544787598E-1,4.730163574E-1,9.830806732E0,9.843392158E0
1.969126458E0,1.736389160E-1,4.697232056E-1,9.839638367E0,9.852374006E0
1.979155458E0,1.683998108E-1,4.686753845E-1,9.847272491E0,9.859857536E0
1.989184458E0,1.672023010E-1,4.578977966E-1,9.875264282E0,9.887288387E0
1.999214458E0,1.716929626E-1,4.552033997E-1,9.880503387E0,9.892473695E0
2.009243458E0,1.616638184E-1,4.513114929E-1,9.844129028E0,9.855794924E0
2.019272458E0,1.613644409E-1,4.321513367E-1,9.794132996E0,9.804990280E0
2.029302458E0,1.669029236E-1,4.294569397E-1,9.822424164E0,9.833224614E0
2.039331458E0,1.715432739E-1,4.183799744E-1,9.858948212E0,9.869312475E0
2.049360458E0,1.559756470E-1,4.131408691E-1,9.867031403E0,9.876908549E0
2.059390458E0,1.507365417E-1,4.123924255E-1,9.856553192E0,9.866328083E0
2.069419458E0,1.495390320E-1,4.067042542E-1,9.814490662E0,9.824051976E0
2.079448458E0,1.320254517E-1,4.071533203E-1,9.786648560E0,9.796004011E0
2.089478458E0,1.312770081E-1,3.923341370E-1,9.816586304E0,9.825300320E0
2.099507458E0,1.387614441E-1,4.071533203E-1,9.861343231E0,9.870720282E0
2.109536458E0,1.441502380E-1,3.920347595E-1,9.877210236E0,9.886038265E0
2.119566458E0,1.327738953E-1,3.918850708E-1,9.871372375E0,9.880040253E0
2.129595458E0,1.731898499E-1,3.811074829E-1,9.784403229E0,9.793354082E0
2.139625458E0,1.892065430E-1,3.739224243E-1,9.759554901E0,9.768547945E0
2.149654458E0,1.966909790E-1,3.617976379E-1,9.791139221E0,9.799795514E0
2.159683458E0,1.796264648E-1,3.568579102E-1,9.824968872E0,9.833088354E0
2.169713458E0,1.445993042E-1,3.418890381E-1,9.839638367E0,9.846638018E0
2.179742458E0,1.460961914E-1,3.321592712E-1,9.800270233E0,9.806985802E0
2.189771458E0,1.395098877E-1,3.314108276E-1,9.792785797E0,9.799385175E0
2.199801458E0,1.422042847E-1,3.329077148E-1,9.884095917E0,9.890723012E0
2.209830458E0,1.407073975E-1,3.493734741E-1,9.960586853E0,9.967705396E0
2.219859458E0,1.633103943E-1,3.734733582E-1,9.990823975E0,9.999135779E0
2.229889458E0,1.634600830E-1,4.022135925E-1,9.916129303E0,9.925629216E0
2.239918458E0,1.550775146E-1,4.276606750E-1,9.810149689E0,9.820691402E0
2.249947458E0,1.625619507E-1,4.269122314E-1,9.762698364E0,9.773380162E0
2.259977458E0,1.721420288E-1,4.198768616E-1,9.767488403E0,9.778024298E0
2.270006458E0,1.887574768E-1,3.980223083E-1,9.820627899E0,9.830502707E0
2.280036458E0,2.014810181E-1,3.623963928E-1,9.885443115E0,9.894135199E0
2.290065458E0,2.121089172E-1,3.173400879E-1,9.882149963E0,9.889518837E0
2.300094458E0,2.185455322E-1,3.113525391E-1,9.887538757E0,9.894853472E0
2.310124458E0,2.103126526E-1,2.868035889E-1,9.882449341E0,9.888846883E0
2.320153458E0,2.113604736E-1,2.561174011E-1,9.872719574E0,9.878302544E0
2.330182458E0,1.945953369E-1,2.582130432E-1,9.866881714E0,9.872177879E0
2.340212458E0,1.975891113E-1,2.650987244E-1,9.855205994E0,9.860750680E0
2.350241458E0,1.836680603E-1,2.733316040E-1,9.844129028E0,9.849635549E0
2.360270458E0,1.739382935E-1,2.884501648E-1,9.848619690E0,9.854378104E0
2.370300458E0,1.916015625E-1,3.026705933E-1,9.821376343E0,9.827906894E0
2.380329458E0,1.857637024E-1,3.243754578E-1,9.830207977E0,9.837312462E0
2.390358458E0,1.923500061E-1,3.243754578E-1,9.846823425E0,9.854042294E0
2.400388458E0,1.776805115E-1,3.278182983E-1,9.858499146E0,9.865548165E0
2.410417458E0,1.919009399E-1,3.279679871E-1,9.881700897E0,9.889004075E0
2.420446458E0,1.972897339E-1,3.210823059E-1,9.908644867E0,9.915808600E0
2.430476458E0,1.927990723E-1,3.212319946E-1,9.946067047E0,9.953120676E0
2.440505458E0,1.844165039E-1,3.126997375E-1,9.902807007E0,9.909458976E0
2.450535458E0,2.017803955E-1,3.100053406E-1,9.807455292E0,9.814428050E0
2.460564458E0,2.487826538E-1,2.971321106E-1,9.773925018E0,9.781604703E0
2.470593458E0,2.363584900E-1,2.918930054E-1,9.828561401E0,9.835735157E0
2.480623458E0,1.941462708E-1,2.742297363E-1,9.801767120E0,9.807524326E0
2.490652458E0,1.817221069E-1,2.607577515E-1,9.793983307E0,9.799139072E0
2.500681458E0,1.794767761E-1,2.502795410E-1,9.811646576E0,9.816479017E0
2.510711458E0,1.856140137E-1,2.460882568E-1,9.825567627E0,9.830401375E0
2.520740458E0,2.080673218E-1,2.469863892E-1,9.870623932E0,9.875905583E0
2.530769458E0,2.278262329E-1,2.597099304E-1,9.925410004E0,9.931420733E0
2.540799458E0,2.176473999E-1,2.544708252E-1,9.903854828E0,9.909513926E0
2.550828458E0,2.228865051E-1,2.567161560E-1,9.867330780E0,9.873185823E0
2.560857458E0,2.239343262E-1,2.688409424E-1,9.858798523E0,9.865005340E0
2.570887458E0,2.279759216E-1,2.637515259E-1,9.869576111E0,9.875731390E0
2.580916458E0,2.225871277E-1,2.671943665E-1,9.880353699E0,9.886471922E0
2.590946458E0,2.230361938E-1,2.520758057E-1,9.858798523E0,9.864542345E0
2.600975458E0,2.052232361E-1,2.537223816E-1,9.825567627E0,9.830985241E0
2.611004917E0,1.910028076E-1,2.300715637E-1,9.831555176E0,9.836101472E0
2.621034917E0,1.896556091E-1,2.252815247E-1,9.851314087E0,9.855714599E0
2.631063917E0,1.948947144E-1,2.050735474E-1,9.859546967E0,9.863605096E0
2.641092917E0,1.857637024E-1,1.920506287E-1,9.855954437E0,9.859575522E0
2.651122917E0,2.143542480E-1,1.968406677E-1,9.839937744E0,9.844240387E0
2.661151917E0,2.032772827E-1,1.969903564E-1,9.833052063E0,9.837125583E0
2.671180917E0,2.053729248E-1,1.913021851E-1,9.803114319E0,9.807131329E0
2.681210917E0,2.010319519E-1,1.956431580E-1,9.795629883E0,9.799645651E0
2.691239917E0,2.052232361E-1,1.971400452E-1,9.831854553E0,9.835971977E0
2.701268917E0,1.974394226E-1,1.969903564E-1,9.867181091E0,9.871122034E0
2.711298917E0,2.008822632E-1,1.913021851E-1,9.924062805E0,9.927938999E0
2.721327917E0,1.987866211E-1,1.984872437E-1,9.908046112E0,9.912027596E0
2.731357917E0,1.954934692E-1,1.960922241E-1,9.870623932E0,9.874506907E0
2.741386917E0,2.103126526E-1,1.986369324E-1,9.851014709E0,9.855261480E0
2.751415917E0,2.032772827E-1,2.056723022E-1,9.857750702E0,9.861991262E0
2.761445917E0,1.990859985E-1,2.040257263E-1,9.849218445E0,9.853342870E0
2.771474917E0,1.966909790E-1,2.200424194E-1,9.835596771E0,9.840023875E0
2.781503917E0,2.016307068E-1,2.231858826E-1,9.830357666E0,9.834957993E0
2.791533917E0,1.875599670E-1,2.174977112E-1,9.810149689E0,9.814352801E0
2.801562917E0,1.835183716E-1,2.139051819E-1,9.822723541E0,9.826766110E0
2.811591917E0,2.076182556E-1,2.046244812E-1,9.839488678E0,9.843805868E0
2.821621917E0,2.124082947E-1,1.960922241E-1,9.860744476E0,9.864981048E0
2.831650917E0,2.035766602E-1,1.800755310E-1,9.882898407E0,9.886634998E0
2.841680917E0,2.130070496E-1,1.688488770E-1,9.840686188E0,9.844439374E0
2.851709917E0,2.424957275E-1,1.513352966E-1,9.732012177E0,9.736209096E0
2.861738917E0,2.562670898E-1,1.428030396E-1,9.736502838E0,9.740921571E0
2.871768917E0,2.679428101E-1,1.314266968E-1,9.792935486E0,9.797481909E0
2.881797917E0,2.451901245E-1,1.031355286E-1,9.859846344E0,9.863433736E0
2.891826917E0,2.065704346E-1,9.131011963E-2,9.881401520E0,9.883982238E0
2.901856917E0,1.669029236E-1,8.472381592E-2,9.831555176E0,9.833336763E0
2.911885917E0,1.673519897E-1,9.879455566E-2,9.796827393E0,9.798754717E0
2.921914917E0,1.938468933E-1,1.110690308E-1,9.841734009E0,9.844269462E0
2.931944917E0,2.106120300E-1,1.416055298E-1,9.924062805E0,9.927307395E0
2.941973917E0,1.984872437E-1,1.890568542E-1,9.946965179E0,9.950741478E0
2.952002917E0,1.833686829E-1,2.306703186E-1,9.902956696E0,9.907339915E0
2.962032917E0,2.146536255E-1,2.552192688E-1,9.834698639E0,9.840351131E0
2.972061917E0,2.100132751E-1,2.600093079E-1,9.776469727E0,9.782181287E0
2.982091917E0,2.294728088E-1,2.480342102E-1,9.780062256E0,9.785897837E0
2.992120917E0,2.462379456E-1,2.260299683E-1,9.815089417E0,9.820779140E0
3.002149917E0,2.552192688E-1,1.776805115E-1,9.865235138E0,9.870135337E0
3.012179917E0,2.631527710E-1,1.314266968E-1,9.883048096E0,9.887424438E0
3.022208917E0,2.444416809E-1,9.669891357E-2,9.882149963E0,9.885645670E0
3.032237917E0,2.418969727E-1,6.601272583E-2,9.875713348E0,9.878895989E0
3.042267917E0,2.330653381E-1,7.140151978E-2,9.858199768E0,9.861212922E0
3.052296917E0,2.183958435E-1,7.828720093E-2,9.833351440E0,9.836087951E0
3.062325917E0,2.281256104E-1,8.891510010E-2,9.837991791E0,9.841038038E0
3.072355917E0,2.219883728E-1,1.200503540E-1,9.854307861E0,9.857538960E0
3.082384917E0,2.257305908E-1,1.444496155E-1,9.854457550E0,9.858100912E0
3.092414917E0,2.387535095E-1,1.673519897E-1,9.839638367E0,9.843957188E0
3.102443917E0,2.418969727E-1,1.941462708E-1,9.843530273E0,9.848415871E0
3.112472917E0,2.377056885E-1,2.130070496E-1,9.854756927E0,9.859924447E0
3.122502917E0,2.380050659E-1,2.257305908E-1,9.875264282E0,9.880710772E0
3.132531917E0,2.381547546E-1,2.513273621E-1,9.874815216E0,9.880883497E0
3.142560917E0,2.561174011E-1,2.418969727E-1,9.873468018E0,9.879751058E0
3.152590917E0,2.594105530E-1,2.414479065E-1,9.912686462E0,9.919019298E0
3.162619917E0,2.360591125E-1,2.520758057E-1,9.906848602E0,9.912866152E0
3.172648917E0,2.531236267E-1,2.496807861E-1,9.848769379E0,9.855184947E0
3.182678917E0,2.960842896E-1,2.279759216E-1,9.809251556E0,9.816366692E0
3.192707917E0,2.891986084E-1,2.197430420E-1,9.771979065E0,9.778726793E0
3.202737917E0,2.550695801E-1,2.002835083E-1,9.757758636E0,9.763146398E0
3.212766917E0,2.185455322E-1,1.842668152E-1,9.791588287E0,9.795760185E0
3.222795917E0,2.191442871E-1,1.694476318E-1,9.848619690E0,9.852514731E0
3.232825917E0,2.392025757E-1,1.713935852E-1,9.887389069E0,9.891767093E0
3.242854917E0,2.549198914E-1,1.734892273E-1,9.909093933E0,9.913890520E0
3.252883917E0,2.544708252E-1,1.850152588E-1,9.903555450E0,9.908551691E0
3.262913917E0,2.351609802E-1,2.106120300E-1,9.868378601E0,9.873426676E0
3.272942917E0,2.356100464E-1,2.290237427E-1,9.824968872E0,9.830461704E0
3.282971917E0,2.492317200E-1,2.525248718E-1,9.824519806E0,9.830924406E0
3.293001917E0,2.532733154E-1,2.468367004E-1,9.823322296E0,9.829686499E0
3.303030917E0,2.667453003E-1,2.513273621E-1,9.829459534E0,9.836289606E0
3.313060917E0,2.514770508E-1,2.610571289E-1,9.804162140E0,9.810860655E0
3.323089917E0,2.480342102E-1,2.495310974E-1,9.807455292E0,9.813764112E0
3.333118917E0,2.374063110E-1,2.565664673E-1,9.818532257E0,9.824752607E0
3.343148917E0,2.194436646E-1,2.583627319E-1,9.861492920E0,9.867317236E0
3.353177917E0,2.228865051E-1,2.498304749E-1,9.888436890E0,9.894103182E0
3.363206917E0,2.213896179E-1,2.633024597E-1,9.885892181E0,9.891875746E0
3.373236917E0,2.420466614E-1,2.869532776E-1,9.849667511E0,9.856818901E0
3.383265917E0,2.502795410E-1,2.841091919E-1,9.847571869E0,9.854848025E0
3.393295917E0,2.245330811E-1,3.083587646E-1,9.832303619E0,9.839699929E0
3.403324917E0,2.225871277E-1,3.359014893E-1,9.840686188E0,9.848932911E0
3.413353917E0,2.112107849E-1,3.411405945E-1,9.836794281E0,9.844973775E0
3.423383917E0,2.115101624E-1,3.486250305E-1,9.834099884E0,9.842550304E0
3.433412917E0,2.254312134E-1,3.442840576E-1,9.850715332E0,9.859307445E0
3.443441917E0,2.326162720E-1,3.507206726E-1,9.891280975E0,9.900230030E0
3.453471917E0,2.218386841E-1,3.385958862E-1,9.884245605E0,9.892531060E0
3.463500917E0,2.246827698E-1,3.420387268E-1,9.888287201E0,9.896751821E0
3.473529917E0,2.291734314E-1,3.430865479E-1,9.850266266E0,9.858903304E0
3.483559917E0,2.154020691E-1,3.466790771E-1,9.839488678E0,9.847950136E0
3.493588917E0,2.210902405E-1,3.728746033E-1,9.850565643E0,9.860099384E0
3.503618917E0,2.180964661E-1,3.724255371E-1,9.866881714E0,9.876316196E0
3.513647917E0,2.240840149E-1,3.823049927E-1,9.854607239E0,9.864565605E0
3.523676917E0,2.207908630E-1,4.017645264E-1,9.818083191E0,9.828780234E0
3.533706917E0,1.995350647E-1,4.162843323E-1,9.775870972E0,9.786764539E0
3.543735917E0,2.017803955E-1,4.125421143E-1,9.783205719E0,9.793978786E0
3.553764917E0,2.077679443E-1,4.276606750E-1,9.839338989E0,9.850819911E0
3.563794917E0,2.052232361E-1,4.258644104E-1,9.885443115E0,9.896740001E0
3.573823917E0,2.020797729E-1,4.245172119E-1,9.877359924E0,9.888543380E0
3.583852917E0,2.186952209E-1,4.225712585E-1,9.787696381E0,9.799254793E0
3.593882917E0,2.432441711E-1,4.212240601E-1,9.779014435E0,9.791104164E0
3.603911917E0,2.451901245E-1,4.177812195E-1,9.875413971E0,9.887287820E0
3.613942292E0,2.127076721E-1,4.028123474E-1,9.859996033E0,9.870512859E0
3.623971292E0,2.019300842E-1,4.040098572E-1,9.825567627E0,9.835943214E0
3.634000292E0,1.796264648E-1,4.031117249E-1,9.782457275E0,9.792407011E0
3.644030292E0,1.757345581E-1,4.037104797E-1,9.737550659E0,9.747500071E0
3.654059292E0,1.839674377E-1,4.176315308E-1,9.801168365E0,9.811786863E0
3.664088292E0,1.793270874E-1,4.263134766E-1,9.918973389E0,9.929749970E0
3.674118292E0,1.567240906E-1,4.429289246E-1,9.986483002E0,9.997529256E0
3.684147292E0,1.586700439E-1,4.810995483E-1,9.957144012E0,9.970022560E0
3.694177292E0,1.540296936E-1,5.173242188E-1,9.855355682E0,9.870125892E0
3.704206292E0,1.791773987E-1,5.553451538E-1,9.803713074E0,9.821064240E0
3.714235292E0,2.076182556E-1,5.815406799E-1,9.781110077E0,9.800582087E0
3.724265292E0,2.118095398E-1,5.840853882E-1,9.795629883E0,9.815313740E0
3.734294292E0,2.171983337E-1,5.599855042E-1,9.823921051E0,9.842265171E0
3.744323292E0,2.165995789E-1,5.628295898E-1,9.849218445E0,9.867664187E0
3.754353292E0,2.179467773E-1,5.373825073E-1,9.881251831E0,9.898253306E0
3.764382292E0,2.249821472E-1,5.110372925E-1,9.897567902E0,9.913305526E0
3.774412292E0,2.177970886E-1,4.855902100E-1,9.892328796E0,9.906634264E0
3.784441292E0,2.142045593E-1,4.767585754E-1,9.859097900E0,9.872942507E0
3.794470292E0,2.008822632E-1,4.785548401E-1,9.840237122E0,9.853914706E0
3.804500292E0,2.028282166E-1,5.113366699E-1,9.842781830E0,9.858141743E0
3.814529292E0,1.986369324E-1,5.231620789E-1,9.841434631E0,9.857331829E0
3.824558292E0,2.164498901E-1,5.361849976E-1,9.835896149E0,9.852877648E0
3.834588292E0,2.023791504E-1,5.688171387E-1,9.836644592E0,9.855155356E0
3.844617292E0,1.999841309E-1,5.857319641E-1,9.847871246E0,9.867301742E0
3.854647292E0,2.056723022E-1,6.138734436E-1,9.851763153E0,9.873012657E0
3.864676292E0,1.963916016E-1,6.010002136E-1,9.848320312E0,9.868595842E0
3.874705292E0,2.004331970E-1,6.243516541E-1,9.841734009E0,9.863554975E0
3.884735292E0,2.103126526E-1,6.200106812E-1,9.826765137E0,9.848551046E0
3.894764292E0,2.028282166E-1,6.309379578E-1,9.869276733E0,9.891503689E0
3.904793292E0,1.775308228E-1,6.274951172E-1,9.937085724E0,9.958460724E0
3.914823292E0,1.836680603E-1,6.471043396E-1,9.937684479E0,9.960424227E0
3.924852292E0,2.127076721E-1,6.327342224E-1,9.815688171E0,9.838360200E0
3.934882292E0,2.420466614E-1,6.472540283E-1,9.712103577E0,9.736656523E0
3.944911292E0,2.134561157E-1,6.301895142E-1,9.701625366E0,9.724414485E0
3.954940292E0,1.737886047E-1,6.294410706E-1,9.758956146E0,9.780778272E0
3.964970292E0,1.600172424E-1,6.161187744E-1,9.822873230E0,9.843477351E0
3.974999292E0,1.594184875E-1,6.018983459E-1,9.881251831E0,9.900850146E0
3.985028292E0,1.826202393E-1,6.077362061E-1,9.898466034E0,9.918786381E0
3.995058292E0,1.914518738E-1,6.159690857E-1,9.913883972E0,9.934846106E0
4.005087292E0,1.865121460E-1,6.167175293E-1,9.897717590E0,9.918666281E0
4.015116292E0,1.769320679E-1,6.324348450E-1,9.861492920E0,9.883335540E0
4.025146292E0,1.761836243E-1,6.480024719E-1,9.810449066E0,9.833405247E0
4.035175292E0,1.832189941E-1,6.493496704E-1,9.814640350E0,9.837804094E0
4.045205292E0,1.842668152E-1,6.590794373E-1,9.816286926E0,9.840113261E0
4.055234292E0,1.856140137E-1,6.649172974E-1,9.845176849E0,9.869350271E0
4.065263292E0,1.907034302E-1,6.713539124E-1,9.830207977E0,9.854951687E0
4.075293292E0,1.892065430E-1,6.676116943E-1,9.837243347E0,9.861686527E0
4.085322292E0,1.704954529E-1,6.650669861E-1,9.828411713E0,9.852363147E0
4.095351292E0,1.618135071E-1,6.652166748E-1,9.823621674E0,9.847448381E0
4.105381292E0,1.683998108E-1,6.773414612E-1,9.836345215E0,9.861076875E0
4.115410292E0,1.737886047E-1,6.532415771E-1,9.826615448E0,9.849837471E0
4.125440292E0,1.745370483E-1,6.788383484E-1,9.823172607E0,9.848147275E0
4.135469292E0,1.719923401E-1,6.903643799E-1,9.829908600E0,9.855622123E0
4.145498292E0,1.678010559E-1,6.923103333E-1,9.831854553E0,9.857627237E0
4.155528292E0,1.797761536E-1,7.057823181E-1,9.830058289E0,9.857002288E0
4.165557292E0,1.591191101E-1,7.072792053E-1,9.836195526E0,9.862875098E0
4.175587292E0,1.538800049E-1,7.024891663E-1,9.831555176E0,9.857821628E0
4.185616292E0,1.627116394E-1,7.168592834E-1,9.851164398E0,9.878552642E0
4.195645292E0,1.504371643E-1,7.117698669E-1,9.840835876E0,9.867689620E0
4.205675292E0,1.582209778E-1,7.146139526E-1,9.849966888E0,9.877122794E0
4.215704292E0,1.571731567E-1,7.096742249E-1,9.844727783E0,9.871525010E0
4.225733292E0,1.402583313E-1,7.081773376E-1,9.833351440E0,9.859816839E0
4.235763292E0,1.580712891E-1,7.289840698E-1,9.820777588E0,9.849064765E0
4.245792292E0,1.651066589E-1,7.286846924E-1,9.831555176E0,9.859904602E0
4.255822292E0,1.583706665E-1,7.357200623E-1,9.829459534E0,9.858227021E0
4.265851292E0,1.651066589E-1,7.277865601E-1,9.826914825E0,9.855211234E0
4.275880292E0,1.507365417E-1,7.280859375E-1,9.817783813E0,9.845898113E0
4.285910292E0,1.520837402E-1,7.382647705E-1,9.822573853E0,9.851452757E0
4.295939292E0,1.663041687E-1,7.357200623E-1,9.828112335E0,9.857014414E0
4.305968292E0,1.597178650E-1,7.223977661E-1,9.826765137E0,9.854576672E0
4.315998292E0,1.615141296E-1,7.391629028E-1,9.817933502E0,9.847043560E0
4.326027292E0,1.561253357E-1,7.364685059E-1,9.815388794E0,9.844217498E0
4.336057292E0,1.429527283E-1,7.414082336E-1,9.814939728E0,9.843940446E0
4.346086292E0,1.350192261E-1,7.432044983E-1,9.806257782E0,9.835307560E0
4.356115292E0,1.387614441E-1,7.533833313E-1,9.823621674E0,9.853445284E0
4.366145292E0,1.413061523E-1,7.713459778E-1,9.825268250E0,9.856512478E0
4.376174292E0,1.410067749E-1,7.625143433E-1,9.819729767E0,9.850299677E0
4.386203292E0,1.508862305E-1,7.664062500E-1,9.814340973E0,9.845376271E0
4.396233292E0,1.386117554E-1,7.593708801E-1,9.827064514E0,9.857335052E0
4.406262292E0,1.296304321E-1,7.680528259E-1,9.818382568E0,9.849230704E0
4.416292292E0,1.348695374E-1,7.551795959E-1,9.841434631E0,9.871287739E0
4.426321292E0,1.386117554E-1,7.740403748E-1,9.842931519E0,9.874292511E0
4.436350292E0,1.284329224E-1,7.798782349E-1,9.825717316E0,9.857455343E0
4.446380292E0,1.407073975E-1,7.804769897E-1,9.829160156E0,9.861101981E0
4.456409292E0,1.315763855E-1,7.780819702E-1,9.820777588E0,9.852430986E0
4.466439292E0,1.384620667E-1,7.900570679E-1,9.825567627E0,9.858252437E0
4.476468292E0,1.371148682E-1,7.702981567E-1,9.819280701E0,9.850402693E0
4.486497292E0,1.338217163E-1,8.032296753E-1,9.825417938E0,9.859103601E0
4.496527292E0,1.190025330E-1,7.936495972E-1,9.815089417E0,9.847843497E0
4.506556292E0,1.287322998E-1,7.912545776E-1,9.824519806E0,9.857172273E0
4.516585292E0,1.221459961E-1,7.887098694E-1,9.824370117E0,9.856735317E0
4.526615292E0,1.311273193E-1,7.867639160E-1,9.838440857E0,9.870719849E0
4.536644292E0,1.236428833E-1,7.996371460E-1,9.846524048E0,9.879713708E0
4.546674292E0,1.199006653E-1,8.161029053E-1,9.825268250E0,9.859832468E0
4.556703292E0,1.236428833E-1,8.078700256E-1,9.817933502E0,9.851891179E0
4.566732292E0,1.118174744E-1,8.042774963E-1,9.817783813E0,9.851306738E0
4.576762292E0,1.219963074E-1,8.256829834E-1,9.832752686E0,9.868113339E0
4.586791292E0,1.284329224E-1,8.229885864E-1,9.850565643E0,9.885719434E0
4.596820292E0,1.194515991E-1,8.250842285E-1,9.829309845E0,9.864601598E0
4.606850292E0,9.714797974E-2,8.372090149E-1,9.780661011E0,9.816908193E0
4.616879292E0,8.442443848E-2,8.518785095E-1,9.758507080E0,9.795983101E0
4.626909292E0,9.505233765E-2,8.478369141E-1,9.816735992E0,9.853738779E0
4.636938292E0,1.043330383E-1,8.337661743E-1,9.845775604E0,9.881566104E0
4.646967292E0,1.109193420E-1,8.367599487E-1,9.837842102E0,9.873986406E0
4.656997292E0,1.323248291E-1,8.304730225E-1,9.816735992E0,9.852690031E0
4.667026292E0,1.664538574E-1,8.222401428E-1,9.831555176E0,9.867282448E0
4.677056292E0,1.713935852E-1,8.229885864E-1,9.866432648E0,9.902180526E0
4.687085292E0,1.399589539E-1,8.119116211E-1,9.838141479E0,9.872579033E0
4.697114292E0,1.125659180E-1,8.101153564E-1,9.734706573E0,9.769005581E0
4.707144292E0,1.142124939E-1,8.128097534E-1,9.636810150E0,9.671701715E0
4.717173292E0,1.191522217E-1,8.184979248E-1,9.662706299E0,9.698042541E0
4.727202292E0,1.210981750E-1,8.002359009E-1,9.789342957E0,9.822742885E0
4.737232292E0,9.535171509E-2,8.066725159E-1,9.951156464E0,9.984253976E0
4.747261292E0,8.322692871E-2,8.246351624E-1,1.001207977E1,1.004632725E1
4.757291292E0,7.933502197E-2,8.726852417E-1,9.954599304E0,9.993093659E0
4.767320292E0,1.001417542E-1,8.994795227E-1,9.857900391E0,9.899358156E0
4.777349292E0,1.374142456E-1,9.297166443E-1,9.810898132E0,9.855809347E0
4.787379292E0,1.484912109E-1,9.499246216E-1,9.779912567E0,9.827059390E0
4.797408292E0,1.564247131E-1,9.632469177E-1,9.774224396E0,9.822819140E0
4.807438292E0,1.598675537E-1,9.520202637E-1,9.762997742E0,9.810607786E0
4.817467292E0,1.609153748E-1,9.415420532E-1,9.789642334E0,9.836131975E0
4.827496292E0,1.426533508E-1,9.274713135E-1,9.851314087E0,9.895905328E0
4.837526292E0,1.389111328E-1,9.026229858E-1,9.886790314E0,9.928879457E0
4.847555292E0,1.490899658E-1,8.767268372E-1,9.904004517E0,9.943851529E0
4.857584292E0,1.480421448E-1,8.508306885E-1,9.880653076E0,9.918323172E0
4.867614292E0,1.311273193E-1,8.357121277E-1,9.831704865E0,9.868030689E0
4.877643292E0,1.351689148E-1,8.511300659E-1,9.799521790E0,9.837343154E0
4.887673292E0,1.221459961E-1,8.687933350E-1,9.789043579E0,9.828280404E0
4.897702292E0,1.330732727E-1,8.810678101E-1,9.787995758E0,9.828471394E0
4.907731292E0,1.278341675E-1,9.156459045E-1,9.805509338E0,9.848998039E0
4.917761292E0,1.398092651E-1,9.113049316E-1,9.835896149E0,9.879011912E0
4.927790292E0,1.245410156E-1,9.303153992E-1,9.836045837E0,9.880728461E0
4.937820292E0,1.281335449E-1,9.431886292E-1,9.832153931E0,9.878120971E0
4.947849292E0,1.345701599E-1,9.499246216E-1,9.835147705E0,9.881831627E0
4.957878292E0,1.451980591E-1,9.648934937E-1,9.828860779E0,9.877176020E0
4.967908292E0,1.389111328E-1,9.842033386E-1,9.820029144E0,9.870203894E0
4.977937292E0,1.257385254E-1,9.686357117E-1,9.861343231E0,9.909599167E0
4.987967292E0,1.175056458E-1,9.800120544E-1,9.857451324E0,9.906744057E0
4.997996292E0,1.522334290E-1,9.855505371E-1,9.760303345E0,9.811116463E0
5.008025292E0,1.549278259E-1,9.821076965E-1,9.691446533E0,9.742313589E0
5.018055292E0,1.462458801E-1,9.551637268E-1,9.711355133E0,9.759310638E0
5.028084292E0,1.290316772E-1,9.373507690E-1,9.759854279E0,9.805612229E0
5.038113292E0,1.079255676E-1,9.042695618E-1,9.830806732E0,9.872897871E0
5.048143292E0,1.049317932E-1,9.009764099E-1,9.871372375E0,9.912959283E0
5.058172292E0,1.272354126E-1,8.993298340E-1,9.860295410E0,9.902040627E0
5.068202292E0,1.366658020E-1,8.991801453E-1,9.854906616E0,9.896786695E0
5.078231292E0,1.399589539E-1,9.159452820E-1,9.820927277E0,9.864540377E0
5.088260292E0,1.276844788E-1,9.267228699E-1,9.817484436E0,9.861953116E0
5.098290292E0,1.236428833E-1,9.430389404E-1,9.801168365E0,9.847208302E0
5.108319292E0,1.133143616E-1,9.520202637E-1,9.766290894E0,9.813237006E0
5.118349292E0,1.215472412E-1,9.725276184E-1,9.805509338E0,9.854369441E0
5.128378292E0,1.185534668E-1,9.701325989E-1,9.825268250E0,9.873758573E0
5.138407292E0,1.285826111E-1,9.614506531E-1,9.824519806E0,9.872290021E0
5.148437292E0,1.212478638E-1,9.523196411E-1,9.826615448E0,9.873397840E0
5.158466292E0,1.199006653E-1,9.434880066E-1,9.823771362E0,9.869702608E0
5.168496292E0,1.007405090E-1,9.214837646E-1,9.817634125E0,9.861299143E0
5.178525292E0,1.077758789E-1,9.107061768E-1,9.801767120E0,9.844574143E0
5.188554292E0,1.074765015E-1,9.307644653E-1,9.809550934E0,9.854195209E0
5.198584292E0,1.068777466E-1,9.370513916E-1,9.795480194E0,9.840778445E0
5.208613292E0,1.119671631E-1,9.473799133E-1,9.811496887E0,9.857765290E0
5.218643292E0,1.118174744E-1,9.478289795E-1,9.813442841E0,9.859743572E0
5.228672292E0,1.121168518E-1,9.604028320E-1,9.799821167E0,9.847407714E0
5.238701292E0,1.170565796E-1,9.638456726E-1,9.804611206E0,9.852568276E0
5.248731292E0,1.185534668E-1,9.547146606E-1,9.813742218E0,9.860784519E0
5.258760292E0,1.225950623E-1,9.717791748E-1,9.804461517E0,9.853265954E0
5.268789292E0,1.190025330E-1,9.569599915E-1,9.814041595E0,9.861305515E0
5.278819292E0,1.104702759E-1,9.599537659E-1,9.818981323E0,9.866413185E0
5.288848292E0,1.107696533E-1,9.460327148E-1,9.820478210E0,9.866561716E0
5.298878292E0,1.118174744E-1,9.512718201E-1,9.821076965E0,9.867673180E0
5.308907292E0,1.125659180E-1,9.653425598E-1,9.822573853E0,9.870537697E0
5.318936292E0,1.239422607E-1,9.650431824E-1,9.815688171E0,9.863792592E0
5.328966292E0,1.041833496E-1,9.532177734E-1,9.807155914E0,9.853922337E0
5.338995292E0,9.325607300E-2,9.711804199E-1,9.804611206E0,9.853034507E0
5.349025292E0,1.034349060E-1,9.648934937E-1,9.799372101E0,9.847304799E0
5.359054292E0,1.050814819E-1,9.539662170E-1,9.810748444E0,9.857579758E0
5.369083292E0,9.789642334E-2,9.571096802E-1,9.792785797E0,9.839933756E0
5.379113292E0,1.103205872E-1,9.481283569E-1,9.801767120E0,9.848134681E0
5.389142292E0,1.061293030E-1,9.433383179E-1,9.810748444E0,9.856568147E0
5.399172292E0,1.023870850E-1,9.455836487E-1,9.824819183E0,9.870748884E0
5.409201292E0,9.445358276E-2,9.297166443E-1,9.804012451E0,9.848449353E0
5.419230292E0,9.175918579E-2,9.379495239E-1,9.805808716E0,9.850992520E0
5.429260292E0,8.711883545E-2,9.446855164E-1,9.814640350E0,9.860384659E0
5.439289292E0,8.068222046E-2,9.526190186E-1,9.813592529E0,9.860050251E0
5.449319292E0,9.565109253E-2,9.583071899E-1,9.812844086E0,9.859990408E0
5.459348292E0,9.475296021E-2,9.587562561E-1,9.819430389E0,9.866580201E0
5.469377292E0,9.699829102E-2,9.590556335E-1,9.810748444E0,9.857990739E0
5.479407292E0,9.819580078E-2,9.639953613E-1,9.818532257E0,9.866230544E0
5.489436292E0,9.864486694E-2,9.617500305E-1,9.791588287E0,9.839201955E0
5.499466292E0,9.056167603E-2,9.572593689E-1,9.807455292E0,9.854477470E0
5.509495292E0,9.340576172E-2,9.539662170E-1,9.829010468E0,9.875637850E0
5.519524292E0,9.340576172E-2,9.424401855E-1,9.820478210E0,9.866038233E0
5.529554292E0,9.639953613E-2,9.520202637E-1,9.823771362E0,9.870264395E0
5.539583292E0,9.340576172E-2,9.627978516E-1,9.818382568E0,9.865918133E0
5.549612292E0,1.046324158E-1,9.487271118E-1,9.803563385E0,9.849918077E0
5.559642292E0,9.714797974E-2,9.512718201E-1,9.812245331E0,9.858727820E0
5.569671292E0,9.610015869E-2,9.377998352E-1,9.815089417E0,9.860257807E0
5.579701292E0,9.340576172E-2,9.533674622E-1,9.818831635E0,9.865449246E0
5.589730292E0,7.125183105E-2,9.539662170E-1,9.822723541E0,9.869195820E0
5.599759292E0,8.996292114E-2,9.592053223E-1,9.805209961E0,9.852426633E0
5.609789042E0,8.666976929E-2,9.650431824E-1,9.803114319E0,9.850881704E0
5.619818042E0,9.460327148E-2,9.623487854E-1,9.827812958E0,9.875270756E0
5.629848042E0,9.490264893E-2,9.773176575E-1,9.819430389E0,9.868402580E0
5.639877042E0,9.295669556E-2,9.737251282E-1,9.805659027E0,9.854325473E0
5.649906042E0,8.427474976E-2,9.752220154E-1,9.758507080E0,9.807477792E0
5.659936042E0,6.975494385E-2,9.723779297E-1,9.744436340E0,9.793080423E0
5.669965042E0,7.694000244E-2,9.632469177E-1,9.776020660E0,9.823662471E0
5.679995042E0,7.993377686E-2,9.466314697E-1,9.833201752E0,9.878985638E0
5.690024042E0,8.652008057E-2,9.419911194E-1,9.849218445E0,9.894540766E0
5.700053042E0,1.080752563E-1,9.457333374E-1,9.820178833E0,9.866205153E0
5.710083042E0,1.236428833E-1,9.445358276E-1,9.797126770E0,9.843329134E0
5.720112042E0,1.266366577E-1,9.351054382E-1,9.810449066E0,9.855727771E0
5.730142042E0,1.212478638E-1,9.496252441E-1,9.823471985E0,9.870009675E0
5.740171042E0,1.125659180E-1,9.526190186E-1,9.787546692E0,9.834440723E0
5.750200042E0,1.112187195E-1,9.394464111E-1,9.715546417E0,9.761494319E0
5.760230042E0,9.145980835E-2,9.366023254E-1,9.653575287E0,9.699335268E0
5.770259042E0,9.610015869E-2,9.288185120E-1,9.691296844E0,9.736178593E0
5.780289042E0,9.355545044E-2,9.142987061E-1,9.814939728E0,9.857876881E0
5.790318042E0,7.918533325E-2,9.342073059E-1,9.962383118E0,1.000640250E1
5.800347042E0,7.694000244E-2,9.458830261E-1,9.971663818E0,1.001672071E1
5.810377042E0,8.113128662E-2,9.699829102E-1,9.889634399E0,9.937420072E0
5.820406042E0,9.265731812E-2,1.005608826E0,9.789642334E0,9.841591920E0
5.830436042E0,1.202000427E-1,1.022074585E0,9.763895874E0,9.817980808E0
5.840465042E0,1.405577087E-1,1.026265869E0,9.753118286E0,9.807970963E0
5.850494042E0,1.546284485E-1,1.025966492E0,9.760003967E0,9.814998453E0
5.860524042E0,1.423539734E-1,1.015039215E0,9.762099609E0,9.815760696E0
5.870553042E0,1.315763855E-1,1.005159760E0,9.800569611E0,9.852858630E0
5.880583042E0,1.339714050E-1,9.955796814E-1,9.853559418E0,9.904633281E0
5.890612042E0,1.320254517E-1,9.626481628E-1,9.878557434E0,9.926228850E0
5.900642042E0,1.225950623E-1,9.259744263E-1,9.883946228E0,9.927983241E0
5.910671042E0,1.273851013E-1,9.210346985E-1,9.878707123E0,9.922367978E0
5.920700042E0,1.133143616E-1,9.271719360E-1,9.836794281E0,9.881042944E0
5.930730042E0,1.115180969E-1,9.306147766E-1,9.806407471E0,9.851096773E0
5.940759042E0,1.139131165E-1,9.430389404E-1,9.801617432E0,9.847537911E0
5.950789042E0,1.011895752E-1,9.627978516E-1,9.806407471E0,9.854077659E0
5.960818042E0,1.151106262E-1,9.906399536E-1,9.826765137E0,9.877243088E0
5.970847042E0,1.200503540E-1,1.000519409E0,9.828711090E0,9.880233442E0
5.980877042E0,1.269360352E-1,1.008003845E0,9.840835876E0,9.893140819E0
5.990906042E0,1.257385254E-1,1.012195129E0,9.836195526E0,9.888937839E0
6.000936042E0,1.219963074E-1,1.007405090E0,9.832153931E0,9.884381571E0
6.010965042E0,1.454974365E-1,1.013093262E0,9.834399261E0,9.887514162E0
6.020994042E0,1.357676697E-1,1.012045441E0,9.846374359E0,9.899179605E0
6.031024042E0,1.269360352E-1,9.957293701E-1,9.873767395E0,9.924659808E0
6.041053042E0,1.047821045E-1,1.011446686E0,9.843979340E0,9.896359579E0
6.051083042E0,1.273851013E-1,9.964778137E-1,9.733808441E0,9.785510808E0
6.061112042E0,1.353186035E-1,1.006207581E0,9.670789490E0,9.723936146E0
6.071141042E0,1.065783691E-1,9.934840393E-1,9.689650269E0,9.741031353E0
6.081171042E0,9.056167603E-2,9.726773071E-1,9.770931244E0,9.819643575E0
6.091200042E0,8.502319336E-2,9.554631042E-1,9.835297394E0,9.881964051E0
6.101230042E0,1.047821045E-1,9.394464111E-1,9.889185333E0,9.934260184E0
6.111259042E0,1.182540894E-1,9.300160217E-1,9.888137512E0,9.932480923E0
6.121288042E0,1.293310547E-1,9.244775391E-1,9.849218445E0,9.893355812E0
6.131318042E0,1.254391479E-1,9.213340759E-1,9.821226654E0,9.865144928E0
6.141347042E0,1.085243225E-1,9.289682007E-1,9.799222412E0,9.843755347E0
6.151377042E0,1.014889526E-1,9.391470337E-1,9.787397003E0,9.832875330E0
6.161406042E0,9.190887451E-2,9.475296021E-1,9.814041595E0,9.860105072E0
6.171435042E0,1.112187195E-1,9.542655945E-1,9.823771362E0,9.870637072E0
6.181465042E0,1.112187195E-1,9.539662170E-1,9.849966888E0,9.896679688E0
6.191494042E0,1.037342834E-1,9.413923645E-1,9.848919067E0,9.894351276E0
6.201524042E0,9.400451660E-2,9.440867615E-1,9.844278717E0,9.889891815E0
6.211553042E0,9.819580078E-2,9.244775391E-1,9.827064514E0,9.870942108E0
6.221583042E0,1.002914429E-1,9.198371887E-1,9.824370117E0,9.867847132E0
6.231612042E0,9.864486694E-2,9.159452820E-1,9.818382568E0,9.861507128E0
6.241641042E0,1.173559570E-1,9.083111572E-1,9.800270233E0,9.842972022E0
6.251671042E0,1.118174744E-1,9.077124023E-1,9.791887665E0,9.834506037E0
6.261700042E0,1.197509766E-1,9.131011963E-1,9.801617432E0,9.844785339E0
6.271730042E0,1.128652954E-1,9.166937256E-1,9.811496887E0,9.854873775E0
6.281759042E0,1.176553345E-1,8.993298340E-1,9.816436615E0,9.858248564E0
6.291788042E0,1.252894592E-1,8.924441528E-1,9.828411713E0,9.869641878E0
6.301818042E0,1.261875916E-1,8.888516235E-1,9.825268250E0,9.866198695E0
6.311847042E0,1.227447510E-1,8.927435303E-1,9.829010468E0,9.870233232E0
6.321877042E0,1.275347900E-1,8.747808838E-1,9.833800507E0,9.873456291E0
6.331906042E0,1.172062683E-1,8.535250854E-1,9.848170624E0,9.885783076E0
6.341935042E0,1.095721436E-1,8.611592102E-1,9.825717316E0,9.863991180E0
6.351965042E0,1.112187195E-1,8.457412720E-1,9.827513580E0,9.864465068E0
6.361994042E0,1.193019104E-1,8.331674194E-1,9.822274475E0,9.858269461E0
6.372024042E0,1.055305481E-1,8.342152405E-1,9.828411713E0,9.864315919E0
6.382053042E0,1.142124939E-1,8.339158630E-1,9.836494904E0,9.872441043E0
6.392083042E0,1.170565796E-1,8.295748901E-1,9.814790039E0,9.850482234E0
6.402112042E0,1.207987976E-1,8.390052795E-1,9.818532257E0,9.855054434E0
6.412141042E0,1.345701599E-1,8.330177307E-1,9.817185059E0,9.853382675E0
6.422171042E0,1.127156067E-1,8.167016602E-1,9.808203735E0,9.842792638E0
6.432200042E0,1.092727661E-1,8.153544617E-1,9.821975098E0,9.856365367E0
6.442230042E0,1.193019104E-1,8.207432556E-1,9.830058289E0,9.864983446E0
6.452259042E0,1.222956848E-1,8.147557068E-1,9.798024902E0,9.832602661E0
6.462288042E0,1.249900818E-1,7.981402588E-1,9.801617432E0,9.834854075E0
6.472318042E0,1.175056458E-1,7.932005310E-1,9.807604980E0,9.840329777E0
6.482347042E0,1.052311707E-1,7.702981567E-1,9.819430389E0,9.850159695E0
6.492377042E0,1.136137390E-1,7.679031372E-1,9.844428406E0,9.874986276E0
6.502406042E0,1.049317932E-1,7.617658997E-1,9.836494904E0,9.866505458E0
6.512436042E0,1.038839722E-1,7.574249268E-1,9.822424164E0,9.852131792E0
6.522465042E0,9.999206543E-2,7.565267944E-1,9.828262024E0,9.857842848E0
6.532494042E0,1.001417542E-1,7.485932922E-1,9.834548950E0,9.863507152E0
6.542524042E0,1.058299255E-1,7.294331360E-1,9.848170624E0,9.875714521E0
6.552553042E0,1.115180969E-1,7.261399841E-1,9.829908600E0,9.857323097E0
6.562583042E0,1.100212097E-1,7.258406067E-1,9.828411713E0,9.855791498E0
6.572612042E0,1.065783691E-1,7.264393616E-1,9.864786072E0,9.892071438E0
6.582641042E0,1.185534668E-1,7.432044983E-1,9.871522064E0,9.900169479E0
6.592671042E0,1.199006653E-1,7.312294006E-1,9.842632141E0,9.870485301E0
6.602700042E0,1.125659180E-1,7.390132141E-1,9.807305603E0,9.835753901E0
6.612730292E0,8.502319336E-2,7.105723572E-1,9.782008209E0,9.808151030E0
6.622759292E0,9.864486694E-2,7.180567932E-1,9.798024902E0,9.824796606E0
6.632789292E0,9.430389404E-2,7.075785828E-1,9.833052063E0,9.858928621E0
6.642818292E0,1.064286804E-1,7.006929016E-1,9.864337006E0,9.889764515E0
6.652847292E0,1.131646729E-1,6.855743408E-1,9.858499146E0,9.882956229E0
6.662877292E0,1.336720276E-1,6.719526672E-1,9.818981323E0,9.842854404E0
6.672906292E0,1.624122620E-1,6.616241455E-1,9.760153656E0,9.783901249E0
6.682936292E0,1.721420288E-1,6.403683472E-1,9.765991516E0,9.788477654E0
6.692965292E0,1.478924561E-1,6.502478027E-1,9.770931244E0,9.793660794E0
6.702994292E0,1.392105103E-1,6.114784241E-1,9.801617432E0,9.821659213E0
6.713024292E0,1.160087585E-1,5.998027039E-1,9.793085175E0,9.812122021E0
6.723053292E0,1.019380188E-1,5.852828979E-1,9.775122528E0,9.793159238E0
6.733083292E0,1.143621826E-1,5.861810303E-1,9.834698639E0,9.852816056E0
6.743112292E0,1.202000427E-1,5.987548828E-1,9.936337280E0,9.955086841E0
6.753142292E0,1.055305481E-1,6.185137939E-1,9.973909149E0,9.993625955E0
6.763171292E0,1.137634277E-1,6.438111877E-1,9.927206268E0,9.948711437E0
6.773200292E0,1.179547119E-1,6.647676086E-1,9.826765137E0,9.849931083E0
6.783230292E0,1.287322998E-1,6.810836792E-1,9.767937469E0,9.792499650E0
6.793259292E0,1.246907043E-1,6.950047302E-1,9.765542450E0,9.791036650E0
6.803289292E0,1.540296936E-1,6.869215393E-1,9.800120544E0,9.825372717E0
6.813318292E0,1.763333130E-1,6.453080750E-1,9.833052063E0,9.855781492E0
6.823348292E0,1.721420288E-1,6.162684631E-1,9.862540741E0,9.883275245E0
6.833377292E0,1.842668152E-1,5.875282288E-1,9.868378601E0,9.887569969E0
6.843406292E0,1.646575928E-1,5.484594727E-1,9.880503387E0,9.897083768E0
6.853436292E0,1.678010559E-1,5.210664368E-1,9.883796539E0,9.898944462E0
6.863465292E0,1.654060364E-1,5.020559692E-1,9.873617706E0,9.887757378E0
6.873495292E0,1.577719116E-1,5.008584595E-1,9.836943970E0,9.850950098E0
6.883524292E0,1.634600830E-1,5.004093933E-1,9.830207977E0,9.844293659E0
6.893554292E0,1.532812500E-1,5.239105225E-1,9.821825409E0,9.836982858E0
6.903583292E0,1.580712891E-1,5.340893555E-1,9.823322296E0,9.839100513E0
6.913612292E0,1.577719116E-1,5.583389282E-1,9.815538483E0,9.832671562E0
6.923642292E0,1.462458801E-1,5.501060486E-1,9.817035370E0,9.833523681E0
6.933671292E0,1.447489929E-1,5.595364380E-1,9.842931519E0,9.859885100E0
6.943701292E0,1.634600830E-1,5.628295898E-1,9.888436890E0,9.905790249E0
6.953730292E0,1.612147522E-1,5.548960876E-1,9.893376617E0,9.910237170E0
6.963759292E0,1.601669312E-1,5.480104065E-1,9.896969147E0,9.913423583E0
6.973789292E0,1.603166199E-1,5.504054260E-1,9.905950470E0,9.922524994E0
6.983818292E0,1.511856079E-1,5.474116516E-1,9.870773621E0,9.887097070E0
6.993848292E0,1.679507446E-1,5.489085388E-1,9.785151672E0,9.801974357E0
7.003877292E0,1.978884888E-1,5.237608337E-1,9.746531982E0,9.762600624E0
7.013907292E0,2.131567383E-1,5.099894714E-1,9.777966614E0,9.793577291E0
7.023936292E0,1.784289551E-1,4.941224670E-1,9.807305603E0,9.821366356E0
7.033966292E0,1.499880981E-1,4.858895874E-1,9.812993774E0,9.826160590E0
7.043995292E0,1.425036621E-1,4.694238281E-1,9.828262024E0,9.840497977E0
7.054024292E0,1.559756470E-1,4.767585754E-1,9.849966888E0,9.862731612E0
7.064054292E0,1.568737793E-1,4.665797424E-1,9.865983582E0,9.878255821E0
7.074083292E0,1.770817566E-1,4.553530884E-1,9.876312103E0,9.888389411E0
7.084113292E0,1.776805115E-1,4.622387695E-1,9.868528290E0,9.880945585E0
7.094142292E0,1.784289551E-1,4.584965515E-1,9.835596771E0,9.847894182E0
7.104171292E0,1.857637024E-1,4.698728943E-1,9.834399261E0,9.847370082E0
7.114201292E0,1.784289551E-1,4.569996643E-1,9.839039612E0,9.851263171E0
7.124230292E0,1.797761536E-1,4.535568237E-1,9.864486694E0,9.876544487E0
7.134260292E0,1.691482544E-1,4.490661621E-1,9.850715332E0,9.862396469E0
7.144289292E0,1.694476318E-1,4.302053833E-1,9.828262024E0,9.839132258E0
7.154319292E0,1.501377869E-1,4.144880676E-1,9.819131012E0,9.829022105E0
7.164348292E0,1.465452576E-1,4.107458496E-1,9.833201752E0,9.842867690E0
7.174378292E0,1.381626892E-1,3.974235535E-1,9.833800507E0,9.842797713E0
7.184407292E0,1.597178650E-1,4.004173279E-1,9.859097900E0,9.868518391E0
7.194436292E0,1.710942078E-1,4.108955383E-1,9.863289185E0,9.873326790E0
7.204466292E0,1.755848694E-1,4.086502075E-1,9.855505371E0,9.865536537E0
7.214495292E0,1.860630798E-1,4.143383789E-1,9.853409729E0,9.863872417E0
7.224525292E0,1.739382935E-1,4.171824646E-1,9.851014709E0,9.861378532E0
7.234554292E0,1.697470093E-1,4.101470947E-1,9.842033386E0,9.852038158E0
7.244583292E0,1.697470093E-1,4.059558105E-1,9.846673737E0,9.856500284E0
7.254613292E0,1.624122620E-1,4.059558105E-1,9.853858795E0,9.863554685E0
7.264642292E0,1.755848694E-1,3.891906738E-1,9.861492920E0,9.870731586E0
7.274672292E0,1.727407837E-1,3.905378723E-1,9.842632141E0,9.851891528E0
7.284701292E0,1.733395386E-1,3.872447205E-1,9.859397278E0,9.868521660E0
7.294731292E0,1.760339355E-1,3.978726196E-1,9.879904633E0,9.889479568E0
7.304760292E0,1.709445190E-1,3.914360046E-1,9.869426422E0,9.878664995E0
7.314790292E0,1.669029236E-1,3.872447205E-1,9.872420197E0,9.881421740E0
7.324819292E0,1.695973206E-1,3.951782227E-1,9.848919067E0,9.858302890E0
7.334848292E0,1.721420288E-1,3.906875610E-1,9.850865021E0,9.860112135E0
7.344878292E0,1.648072815E-1,3.887416077E-1,9.841434631E0,9.850488165E0
7.354907292E0,1.800755310E-1,3.799099731E-1,9.844578094E0,9.853551474E0
7.364937292E0,1.803749084E-1,3.665876770E-1,9.868677979E0,9.877131500E0
7.374966292E0,1.709445190E-1,3.411405945E-1,9.887838135E0,9.895197922E0
7.384996292E0,1.597178650E-1,3.475772095E-1,9.842183075E0,9.849613566E0
7.395025292E0,1.606159973E-1,3.239263916E-1,9.821226654E0,9.827879669E0
7.405054292E0,1.683998108E-1,3.118016052E-1,9.839039612E0,9.845419200E0
7.415084292E0,1.558259583E-1,3.141966248E-1,9.858050079E0,9.864286726E0
7.425113292E0,1.586700439E-1,3.110531616E-1,9.878557434E0,9.884726968E0
7.435143292E0,1.749861145E-1,3.095562744E-1,9.859546967E0,9.865957207E0
7.445172292E0,1.453477478E-1,3.212319946E-1,9.834099884E0,9.840418512E0
7.455202292E0,1.404080200E-1,3.263214111E-1,9.809101868E0,9.815532565E0
7.465231292E0,1.371148682E-1,3.370989990E-1,9.806108093E0,9.812858511E0
7.475260292E0,1.460961914E-1,3.156935120E-1,9.834848328E0,9.840998329E0
7.485290292E0,1.570234680E-1,3.134481812E-1,9.841734009E0,9.847976159E0
7.495319292E0,1.528321838E-1,3.209326172E-1,9.839338989E0,9.845757826E0
7.505349292E0,1.812730408E-1,3.053649902E-1,9.813442841E0,9.819865991E0
7.515378292E0,2.086660767E-1,2.802172852E-1,9.756561127E0,9.762814567E0
7.525408292E0,2.157014465E-1,2.622546387E-1,9.789043579E0,9.794931281E0
7.535437292E0,2.140548706E-1,2.447410583E-1,9.846673737E0,9.852040466E0
7.545466292E0,1.800755310E-1,2.236349487E-1,9.868528290E0,9.872704310E0
7.555496292E0,1.595681763E-1,2.022294617E-1,9.863738251E0,9.867101451E0
7.565525292E0,1.487905884E-1,2.073188782E-1,9.827812958E0,9.831125434E0
7.575555292E0,1.302291870E-1,2.124082947E-1,9.838740234E0,9.841894448E0
7.585584292E0,1.585203552E-1,2.441423035E-1,9.905651093E0,9.909927232E0
7.595614292E0,1.719923401E-1,2.799179077E-1,9.949659576E0,9.955082174E0
7.605643292E0,1.712438965E-1,3.034190369E-1,9.913734283E0,9.919854587E0
7.615673333E0,1.648072815E-1,3.393443298E-1,9.830058289E0,9.837294444E0
7.625702333E0,1.761836243E-1,3.549119568E-1,9.774523773E0,9.782551720E0
7.635731333E0,1.850152588E-1,3.409909058E-1,9.769284668E0,9.776984626E0
7.645761333E0,1.987866211E-1,3.336561584E-1,9.811047821E0,9.818732194E0
7.655790333E0,2.189945984E-1,2.929408264E-1,9.849517822E0,9.856306321E0
7.665820333E0,2.237846375E-1,2.564167786E-1,9.883197784E0,9.889055950E0
7.675849333E0,2.272274780E-1,1.945953369E-1,9.908644867E0,9.913160080E0
7.685879333E0,2.227368164E-1,1.866618347E-1,9.914333038E0,9.918591328E0
7.695908333E0,2.139051819E-1,1.672023010E-1,9.903256073E0,9.906976980E0
7.705937333E0,2.073188782E-1,1.643582153E-1,9.882000275E0,9.885541167E0
7.715967333E0,1.844165039E-1,1.712438965E-1,9.857301636E0,9.860513651E0
7.725996333E0,1.769320679E-1,1.948947144E-1,9.846673737E0,9.850191500E0
7.736026333E0,1.784289551E-1,2.243833923E-1,9.834399261E0,9.838576809E0
7.746055333E0,1.902543640E-1,2.415975952E-1,9.848470001E0,9.853269888E0
7.756085333E0,2.073188782E-1,2.585124207E-1,9.845176849E0,9.850752102E0
7.766114333E0,1.978884888E-1,2.637515259E-1,9.838141479E0,9.843665602E0
7.776144333E0,1.881587219E-1,2.493814087E-1,9.842332764E0,9.847289425E0
7.786173333E0,2.095642090E-1,2.433938599E-1,9.856403503E0,9.861635146E0
7.796202333E0,2.237846375E-1,2.463876343E-1,9.871522064E0,9.877131886E0
7.806232333E0,2.216889954E-1,2.496807861E-1,9.919272766E0,9.924890867E0
7.816261333E0,1.887574768E-1,2.453398132E-1,9.959688721E0,9.964498002E0
7.826291333E0,1.821711731E-1,2.326162720E-1,9.866432648E0,9.870855579E0
7.836320333E0,2.110610962E-1,2.344125366E-1,9.785900116E0,9.790982438E0
7.846350333E0,2.438429260E-1,2.213896179E-1,9.770781555E0,9.776330852E0
7.856379333E0,2.266287231E-1,2.155517578E-1,9.828561401E0,9.833536615E0
7.866408333E0,1.910028076E-1,1.995350647E-1,9.827214203E0,9.831095326E0
7.876438333E0,1.766326904E-1,2.055226135E-1,9.828711090E0,9.832446305E0
7.886467333E0,1.896556091E-1,1.986369324E-1,9.873767395E0,9.877586165E0
7.896497333E0,2.189945984E-1,1.969903564E-1,9.905800781E0,9.910179259E0
7.906526333E0,2.255809021E-1,1.935475159E-1,9.922565918E0,9.927016761E0
7.916556333E0,2.197430420E-1,2.011816406E-1,9.914183350E0,9.918658808E0
7.926585333E0,2.106120300E-1,2.080673218E-1,9.875563660E0,9.880000356E0
7.936615333E0,2.335144043E-1,2.216889954E-1,9.841883698E0,9.847149319E0
7.946644333E0,2.245330811E-1,2.302212524E-1,9.821376343E0,9.826639822E0
7.956673333E0,2.128573608E-1,2.320175171E-1,9.824819183E0,9.829863294E0
7.966703333E0,2.180964661E-1,2.242337036E-1,9.818382568E0,9.823364143E0
7.976732333E0,2.134561157E-1,2.109114075E-1,9.813592529E0,9.818179336E0
7.986762333E0,2.103126526E-1,1.908531189E-1,9.839488678E0,9.843586428E0
7.996791333E0,2.155517578E-1,1.636097717E-1,9.871971130E0,9.875679456E0
8.006821333E0,2.189945984E-1,1.463955688E-1,9.867330780E0,9.870846317E0
8.016850333E0,2.188449097E-1,1.318757629E-1,9.873617706E0,9.876923151E0
8.026879333E0,2.198927307E-1,1.398092651E-1,9.868528290E0,9.871967891E0
8.036909333E0,2.142045593E-1,1.517843628E-1,9.847422180E0,9.850921057E0
8.046938333E0,2.004331970E-1,1.612147522E-1,9.827363892E0,9.830729613E0
8.056968333E0,1.953437805E-1,1.724414062E-1,9.822723541E0,9.826178962E0
8.066997333E0,2.062710571E-1,1.895059204E-1,9.832902374E0,9.836891244E0
8.077027333E0,2.059716797E-1,1.704954529E-1,9.844278717E0,9.847909245E0
8.087056333E0,1.986369324E-1,1.743873596E-1,9.867480469E0,9.871020129E0
8.097086333E0,2.005828857E-1,1.784289551E-1,9.879006500E0,9.882653481E0
8.107115333E0,2.158511353E-1,1.731898499E-1,9.873318329E0,9.877196022E0
8.117144333E0,2.155517578E-1,1.698966980E-1,9.870025177E0,9.873840410E0
8.127174333E0,2.002835083E-1,1.526824951E-1,9.847122803E0,9.850342782E0
8.137203333E0,2.091151428E-1,1.559756470E-1,9.831255798E0,9.834716474E0
8.147233333E0,2.133064270E-1,1.628613281E-1,9.840686188E0,9.844344980E0
8.157262333E0,1.911524963E-1,1.594184875E-1,9.842033386E0,9.845180278E0
8.167292333E0,2.040257263E-1,1.529818726E-1,9.863289185E0,9.866585199E0
8.177321333E0,2.022294617E-1,1.389111328E-1,9.876012726E0,9.879059693E0
8.187350333E0,1.983375549E-1,1.396595764E-1,9.878258057E0,9.881235996E0
8.197380333E0,2.035766602E-1,1.113684082E-1,9.900262299E0,9.902981367E0
8.207409333E0,2.097138977E-1,1.196012878E-1,9.877509613E0,9.880459531E0
8.217439333E0,2.002835083E-1,1.184037781E-1,9.821825409E0,9.824580770E0
8.227468333E0,1.904040527E-1,1.017883301E-1,9.796378326E0,9.798757211E0
8.237498333E0,1.850152588E-1,9.415420532E-2,9.818681946E0,9.820876275E0
8.247527333E0,1.965412903E-1,9.535171509E-2,9.853559418E0,9.855980602E0
8.257557333E0,2.059716797E-1,8.652008057E-2,9.874964905E0,9.877491682E0
8.267586333E0,2.152523804E-1,1.025367737E-1,9.863438873E0,9.866320174E0
8.277615333E0,2.002835083E-1,1.008901978E-1,9.826016693E0,9.828575501E0
8.287645333E0,1.791773987E-1,8.876541138E-2,9.817334747E0,9.819370926E0
8.297674333E0,1.797761536E-1,9.475296021E-2,9.812694397E0,9.814798465E0
8.307704333E0,1.880090332E-1,8.891510010E-2,9.823921051E0,9.826122231E0
8.317733333E0,1.761836243E-1,9.550140381E-2,9.862091675E0,9.864127604E0
8.327763333E0,1.917512512E-1,8.861572266E-2,9.888287201E0,9.890543213E0
8.337792333E0,2.061213684E-1,8.652008057E-2,9.812395020E0,9.814941047E0
8.347822333E0,2.311193848E-1,8.487350464E-2,9.737550659E0,9.740662838E0
8.357851333E0,2.383044434E-1,9.011260986E-2,9.850116577E0,9.853410875E0
8.367880333E0,2.167492676E-1,7.319778442E-2,9.893675995E0,9.896320672E0
8.377910333E0,1.797761536E-1,6.870712280E-2,9.893526306E0,9.895398067E0
8.387939333E0,1.701960754E-1,5.613327026E-2,9.849218445E0,9.850848777E0
8.397969333E0,1.585203552E-1,6.511459351E-2,9.785750427E0,9.787250893E0
8.407998333E0,1.522334290E-1,7.349716187E-2,9.808503113E0,9.809959743E0
8.418028333E0,1.787283325E-1,9.190887451E-2,9.899962921E0,9.902002671E0
8.428057333E0,1.972897339E-1,1.088237000E-1,9.955647125E0,9.958196399E0
8.438087333E0,1.933978271E-1,1.169068909E-1,9.933044128E0,9.935614505E0
8.448116333E0,1.793270874E-1,1.234931946E-1,9.883946228E0,9.886344209E0
8.458145333E0,2.008822632E-1,1.317260742E-1,9.823921051E0,9.826857598E0
8.468175333E0,2.094145203E-1,1.231938171E-1,9.811945953E0,9.814953619E0
8.478204333E0,2.203417969E-1,8.652008057E-2,9.821076965E0,9.823929407E0
8.488234333E0,2.306703186E-1,6.810836792E-2,9.856852570E0,9.859786515E0
8.498263333E0,2.344125366E-1,3.517684937E-2,9.872420197E0,9.875265424E0
8.508293333E0,2.255809021E-1,3.023712158E-2,9.871671753E0,9.874295125E0
8.518322333E0,2.130070496E-1,1.496887207E-2,9.877359924E0,9.879667765E0
8.528352333E0,2.062710571E-1,4.340972900E-3,9.867929535E0,9.870086114E0
8.538381333E0,2.100132751E-1,1.002914429E-2,9.852960663E0,9.855203701E0
8.548410333E0,2.113604736E-1,3.592529297E-2,9.849667511E0,9.852000505E0
8.558440333E0,2.052232361E-1,5.239105225E-2,9.841135254E0,9.843414270E0
8.568469333E0,2.043251038E-1,6.706054688E-2,9.842781830E0,9.845130777E0
8.578499333E0,2.008822632E-1,9.535171509E-2,9.837093658E0,9.839606561E0
8.588528333E0,2.083666992E-1,7.708969116E-2,9.832153931E0,9.834663717E0
8.598558333E0,2.185455322E-1,8.367599487E-2,9.847422180E0,9.850202405E0
8.608587333E0,2.083666992E-1,8.262817383E-2,9.891730042E0,9.894269418E0
8.618617417E0,2.083666992E-1,6.810836792E-2,9.893077240E0,9.895505682E0
8.628646417E0,2.074685669E-1,7.993377686E-2,9.880952454E0,9.883453546E0
8.638675417E0,2.137554932E-1,8.741821289E-2,9.893226929E0,9.895922009E0
8.648705417E0,1.880090332E-1,8.876541138E-2,9.957144012E0,9.959314413E0
8.658734417E0,1.790277100E-1,7.364685059E-2,9.895771637E0,9.897664930E0
8.668764417E0,2.016307068E-1,7.813751221E-2,9.802515564E0,9.804900397E0
8.678793417E0,2.450404358E-1,7.155120850E-2,9.787696381E0,9.791024708E0
8.688823417E0,2.282752991E-1,7.020401001E-2,9.785900116E0,9.788813988E0
8.698852417E0,2.031275940E-1,4.730163574E-2,9.786349182E0,9.788571325E0
8.708882417E0,1.904040527E-1,3.861968994E-2,9.810898132E0,9.812821579E0
8.718911417E0,2.136058044E-1,3.577560425E-2,9.853110352E0,9.855490395E0
8.728941417E0,2.351609802E-1,1.646575928E-2,9.901459808E0,9.904265654E0
8.738970417E0,2.392025757E-1,2.993774414E-3,9.927805023E0,9.930686754E0
8.748999417E0,2.152523804E-1,1.886077881E-2,9.922116852E0,9.924469363E0
8.759029417E0,2.109114075E-1,3.068618774E-2,9.874964905E0,9.877264659E0
8.769058417E0,2.092648315E-1,4.116439819E-2,9.821376343E0,9.823691747E0
8.779088417E0,2.139051819E-1,4.879852295E-2,9.826465759E0,9.828914795E0
8.789117417E0,2.160008240E-1,5.703140259E-2,9.841284943E0,9.843820308E0
8.799147417E0,2.182461548E-1,4.460723877E-2,9.824070740E0,9.826595905E0
8.809176417E0,2.011816406E-1,2.125579834E-2,9.809101868E0,9.811187763E0
8.819206417E0,2.037263489E-1,2.903961182E-2,9.806108093E0,9.808267108E0
8.829235417E0,1.877096558E-1,2.948867798E-2,9.849068756E0,9.850901474E0
8.839264417E0,1.951940918E-1,1.317260742E-2,9.885143738E0,9.887079496E0
8.849294417E0,2.034269714E-1,1.167572021E-2,9.890233154E0,9.892331914E0
8.859323417E0,2.092648315E-1,2.664459229E-2,9.876910858E0,9.879163416E0
8.869353417E0,2.053729248E-1,2.619552612E-2,9.840536499E0,9.842714200E0
8.879382417E0,1.889071655E-1,3.263214111E-2,9.824370117E0,9.826240327E0
8.889412417E0,1.933978271E-1,3.412902832E-2,9.826615448E0,9.828577653E0
8.899441417E0,1.821711731E-1,4.730163574E-2,9.846224670E0,9.848023357E0
8.909471417E0,2.032772827E-1,2.814147949E-2,9.861792297E0,9.863927256E0
8.919500417E0,1.924996948E-1,3.158432007E-2,9.885293427E0,9.887218003E0
8.929530417E0,1.895059204E-1,4.475692749E-2,9.878258057E0,9.880177018E0
8.939559417E0,1.895059204E-1,4.101470947E-2,9.877659302E0,9.879562135E0
8.949588417E0,1.908531189E-1,2.125579834E-2,9.878258057E0,9.880124440E0
8.959618417E0,1.953437805E-1,2.230361938E-2,9.851314087E0,9.853275896E0
8.969647417E0,2.103126526E-1,2.724334717E-2,9.850565643E0,9.852848172E0
8.979677417E0,2.038760376E-1,3.562591553E-2,9.848919067E0,9.851093413E0
8.989706417E0,2.059716797E-1,3.637435913E-2,9.848320312E0,9.850541122E0
8.999736417E0,2.034269714E-1,3.188369751E-2,9.853858795E0,9.856009956E0
9.009765417E0,2.074685669E-1,2.140548706E-2,9.875713348E0,9.877915546E0
9.019795417E0,2.035766602E-1,1.152603149E-2,9.880802765E0,9.882906434E0
9.029824417E0,1.993853760E-1,1.691482544E-2,9.877060547E0,9.879087290E0
9.039854417E0,1.995350647E-1,1.990859985E-2,9.874964905E0,9.877000682E0
9.049883417E0,1.850152588E-1,-2.245330811E-3,9.862091675E0,9.863827244E0
9.059912417E0,1.890568542E-1,-8.831634521E-3,9.837692413E0,9.839512819E0
9.069942417E0,1.853146362E-1,-1.496887207E-4,9.828561401E0,9.830308274E0
9.079971417E0,1.896556091E-1,-1.032852173E-2,9.846673737E0,9.848505450E0
9.090001417E0,1.960922241E-1,-8.981323242E-3,9.861642609E0,9.863596087E0
9.100030417E0,2.013313293E-1,4.939727783E-3,9.882299652E0,9.884351527E0
9.110060417E0,1.942959595E-1,1.496887207E-3,9.862840118E0,9.864753842E0
9.120089417E0,1.585203552E-1,-8.382568359E-3,9.814790039E0,9.816073679E0
9.130119417E0,1.603166199E-1,5.388793945E-3,9.788444824E0,9.789759064E0
9.140148417E0,1.673519897E-1,1.526824951E-2,9.796078949E0,9.797520226E0
9.150177417E0,1.818717957E-1,3.742218018E-3,9.858948212E0,9.860626308E0
9.160207417E0,1.730401611E-1,9.131011963E-3,9.889484711E0,9.891002685E0
9.170236417E0,1.842668152E-1,5.837860107E-3,9.889933777E0,9.891651958E0
9.180266417E0,2.142045593E-1,-6.735992432E-3,9.807305603E0,9.809646893E0
9.190295417E0,2.219883728E-1,-3.592529297E-3,9.727671204E0,9.730204458E0
9.200325417E0,2.291734314E-1,-1.137634277E-2,9.803563385E0,9.806248259E0
9.210354417E0,2.013313293E-1,-3.906875610E-2,9.852810974E0,9.854945193E0
9.220384417E0,1.748364258E-1,-6.122268677E-2,9.884245605E0,9.885981346E0
9.230413417E0,1.399589539E-1,-6.256988525E-2,9.849517822E0,9.850710879E0
9.240443417E0,1.240919495E-1,-5.777984619E-2,9.801318054E0,9.802273865E0
9.250472417E0,1.480421448E-1,-3.442840576E-2,9.832303619E0,9.833478340E0
9.260502417E0,1.769320679E-1,-5.239105225E-3,9.934391327E0,9.935968168E0
9.270531417E0,1.951940918E-1,1.916015625E-2,9.940827942E0,9.942762595E0
9.280560417E0,1.790277100E-1,5.553451538E-2,9.903405762E0,9.905179488E0
9.290590417E0,1.839674377E-1,8.936416626E-2,9.824819183E0,9.826947744E0
9.300619417E0,1.878593445E-1,1.100212097E-1,9.798623657E0,9.801041852E0
9.310649417E0,2.064207458E-1,7.993377686E-2,9.827513580E0,9.830006211E0
9.320678417E0,2.227368164E-1,5.852828979E-2,9.862989807E0,9.865678141E0
9.330708417E0,2.347119141E-1,1.002914429E-2,9.915081482E0,9.917864239E0
9.340737417E0,2.219883728E-1,-1.901046753E-2,9.931996307E0,9.934494999E0
9.350767417E0,2.149530029E-1,-5.463638306E-2,9.904154205E0,9.906637192E0
9.360796417E0,2.022294617E-1,-5.807922363E-2,9.880653076E0,9.882893056E0
9.370826417E0,1.938468933E-1,-5.523513794E-2,9.854307861E0,9.856369056E0
9.380855417E0,1.926493835E-1,-3.652404785E-2,9.839039612E0,9.840993256E0
9.390884417E0,1.814227295E-1,-1.437011719E-2,9.829609222E0,9.831293820E0
9.400914417E0,1.954934692E-1,-1.332229614E-2,9.831555176E0,9.833507632E0
9.410943417E0,2.049238586E-1,-6.436614990E-3,9.849068756E0,9.851202494E0
9.420973417E0,2.104623413E-1,1.077758789E-2,9.863887939E0,9.866138851E0
9.431002417E0,2.062710571E-1,1.661544800E-2,9.854756927E0,9.856929437E0
9.441032417E0,2.002835083E-1,1.601669312E-2,9.852810974E0,9.854859416E0
9.451061417E0,1.896556091E-1,3.487747192E-2,9.851613464E0,9.853500573E0
9.461091417E0,1.986369324E-1,1.871109009E-2,9.850715332E0,9.852735625E0
9.471120417E0,2.035766602E-1,3.203338623E-2,9.861642609E0,9.863795645E0
9.481150417E0,2.023791504E-1,4.745132446E-2,9.879006500E0,9.881193166E0
9.491179417E0,1.854643250E-1,4.460723877E-2,9.935888214E0,9.937719126E0
9.501208417E0,1.751358032E-1,6.286926270E-2,9.924960938E0,9.926705128E0
9.511238417E0,2.165995789E-1,7.334747314E-2,9.828860779E0,9.831520708E0
9.521267417E0,2.484832764E-1,6.406677246E-2,9.770631866E0,9.774001001E0
9.531297417E0,2.360591125E-1,6.152206421E-2,9.775122528E0,9.778165948E0
9.541326417E0,2.001338196E-1,2.948867798E-2,9.754914551E0,9.757011890E0
9.551356417E0,2.115101624E-1,2.200424194E-2,9.788893890E0,9.791203416E0
9.561385417E0,2.206411743E-1,1.062789917E-2,9.864337006E0,9.866810024E0
9.571415417E0,2.103126526E-1,-9.131011963E-3,9.904154205E0,9.906391135E0
9.581444417E0,2.113604736E-1,-8.382568359E-3,9.925410004E0,9.927663736E0
9.591474417E0,2.044747925E-1,-1.032852173E-2,9.914033661E0,9.916147440E0
9.601503417E0,1.935475159E-1,9.879455566E-3,9.875264282E0,9.877165732E0
9.611533417E0,2.019300842E-1,4.101470947E-2,9.819879456E0,9.822041055E0
9.621561958E0,1.987866211E-1,4.984634399E-2,9.822873230E0,9.825010904E0
9.631591958E0,2.046244812E-1,6.227050781E-2,9.832153931E0,9.834480144E0
9.641620958E0,2.121089172E-1,6.436614990E-2,9.848470001E0,9.850964144E0
9.651649958E0,2.094145203E-1,6.361770630E-2,9.836494904E0,9.838929497E0
9.661679958E0,2.013313293E-1,5.328918457E-2,9.837991791E0,9.840195959E0
9.671708958E0,2.007325745E-1,5.673202515E-2,9.870623932E0,9.872827806E0
9.681738958E0,1.770817566E-1,5.658233643E-2,9.864187317E0,9.865938928E0
9.691767958E0,1.948947144E-1,5.149291992E-2,9.866133270E0,9.868192397E0
9.701797958E0,1.986369324E-1,4.909790039E-2,9.864037628E0,9.866159616E0
9.711826958E0,1.901046753E-1,7.080276489E-2,9.851613464E0,9.853701876E0
9.721856958E0,2.112107849E-1,8.741821289E-2,9.840237122E0,9.842891778E0
9.731885958E0,2.001338196E-1,9.355545044E-2,9.827214203E0,9.829697104E0
9.741915958E0,2.088157654E-1,1.032852173E-1,9.855655060E0,9.858408011E0
9.751944958E0,2.041754150E-1,1.098715210E-1,9.850415955E0,9.853144363E0
9.761974958E0,2.040257263E-1,1.049317932E-1,9.866582336E0,9.869249423E0
9.772003958E0,2.038760376E-1,1.200503540E-1,9.865534515E0,9.868371132E0
9.782032958E0,1.929487610E-1,1.143621826E-1,9.873468018E0,9.876015321E0
9.792062958E0,1.866618347E-1,1.164578247E-1,9.876461792E0,9.878912015E0
9.802091958E0,1.875599670E-1,1.221459961E-1,9.856553192E0,9.859094239E0
9.812121958E0,1.827699280E-1,1.471440125E-1,9.859696655E0,9.862488243E0
9.822150958E0,1.770817566E-1,1.353186035E-1,9.853409729E0,9.855929807E0
9.832180958E0,1.824705505E-1,1.417552185E-1,9.854008484E0,9.856717164E0
9.842209958E0,1.844165039E-1,1.453477478E-1,9.854607239E0,9.857404285E0
9.852239958E0,1.924996948E-1,1.694476318E-1,9.881102142E0,9.884429583E0
9.862268958E0,1.770817566E-1,1.528321838E-1,9.863738251E0,9.866511435E0
9.872298958E0,1.922003174E-1,1.369651794E-1,9.846224670E0,9.849052781E0
9.882327958E0,1.989363098E-1,1.290316772E-1,9.828561401E0,9.831421263E0
9.892357958E0,2.028282166E-1,1.459465027E-1,9.843979340E0,9.847150294E0
9.902386958E0,1.772314453E-1,1.505868530E-1,9.861492920E0,9.864234892E0
9.912416958E0,1.746867371E-1,1.469943237E-1,9.852361908E0,9.855006745E0
9.922445958E0,1.694476318E-1,1.595681763E-1,9.853110352E0,9.855859075E0
9.932474958E0,1.782792664E-1,1.734892273E-1,9.844129028E0,9.847271619E0
9.942504958E0,1.706451416E-1,1.790277100E-1,9.856852570E0,9.859955034E0
9.952533958E0,1.568737793E-1,2.028282166E-1,9.874515839E0,9.877844487E0
9.962563958E0,1.829196167E-1,2.112107849E-1,9.852960663E0,9.856921599E0
9.972592958E0,1.594184875E-1,2.097138977E-1,9.839039612E0,9.842565451E0
9.982622958E0,1.716929626E-1,2.121089172E-1,9.850565643E0,9.854344837E0
9.992651958E0,1.642085266E-1,2.152523804E-1,9.875264282E0,9.878974778E0
1.000268196E1,1.511856079E-1,2.237846375E-1,9.900711365E0,9.904394084E0
1.001271096E1,1.598675537E-1,2.338137817E-1,9.898166656E0,9.902218422E0
1.002274096E1,1.422042847E-1,2.487826538E-1,9.853409729E0,9.857575673E0
1.003276996E1,1.261875916E-1,2.387535095E-1,9.796078949E0,9.799800474E0
1.004279996E1,1.498384094E-1,2.592608643E-1,9.779014435E0,9.783598063E0
1.005282896E1,1.516346741E-1,2.462379456E-1,9.836644592E0,9.840894423E0
1.006285896E1,1.546284485E-1,2.460882568E-1,9.898016968E0,9.902283034E0
1.007288796E1,1.573228455E-1,2.439926147E-1,9.872120819E0,9.876388628E0
1.008291796E1,1.896556091E-1,2.472857666E-1,9.827513580E0,9.832453543E0
1.009294696E1,2.070195007E-1,2.396516418E-1,9.764943695E0,9.770077551E0
1.010297596E1,2.107617188E-1,2.152523804E-1,9.787097626E0,9.791732943E0
1.011300596E1,1.899549866E-1,2.471360779E-1,9.844428406E0,9.849361897E0
1.012303496E1,1.547781372E-1,2.239343262E-1,9.830207977E0,9.833976395E0
1.013306496E1,1.393601990E-1,2.249821472E-1,9.803114319E0,9.806685912E0
1.014309396E1,1.459465027E-1,2.375559998E-1,9.776918793E0,9.780893329E0
1.015312396E1,1.410067749E-1,2.412982178E-1,9.836644592E0,9.840614034E0
1.016315296E1,1.357676697E-1,2.908451843E-1,9.955048370E0,9.960221475E0
1.017318296E1,1.281335449E-1,3.245251465E-1,9.983040161E0,9.989135380E0
1.018321196E1,1.278341675E-1,3.686833191E-1,9.941576385E0,9.949231628E0
1.019324196E1,1.447489929E-1,4.228706360E-1,9.854457550E0,9.864588458E0
1.020327096E1,1.463955688E-1,4.343966675E-1,9.801467743E0,9.812181309E0
1.021330096E1,1.775308228E-1,4.547543335E-1,9.788295135E0,9.800461232E0
1.022332996E1,1.820214844E-1,4.472698975E-1,9.790091400E0,9.801993257E0
1.023335996E1,1.951940918E-1,4.321513367E-1,9.825118561E0,9.836554795E0
1.024338896E1,1.938468933E-1,4.037104797E-1,9.842183075E0,9.852366541E0
1.025341896E1,1.841171265E-1,3.704795837E-1,9.861043854E0,9.869718341E0
1.026344796E1,1.935475159E-1,3.579057312E-1,9.888586578E0,9.896954161E0
1.027347796E1,1.844165039E-1,3.330574036E-1,9.895472260E0,9.902792935E0
1.028350696E1,1.673519897E-1,3.100053406E-1,9.907147980E0,9.913409660E0
1.029353596E1,1.772314453E-1,3.297642517E-1,9.890831909E0,9.897914493E0
1.030356596E1,1.636097717E-1,3.414399719E-1,9.867031403E0,9.874292790E0
1.031359496E1,1.529818726E-1,3.902384949E-1,9.822424164E0,9.831363384E0
1.032362496E1,1.478924561E-1,4.152365112E-1,9.818981323E0,9.828870116E0
1.033365396E1,1.320254517E-1,4.352947998E-1,9.810299377E0,9.820839382E0
1.034368396E1,1.543290710E-1,4.580474854E-1,9.833501129E0,9.845372995E0
1.035371296E1,1.378633118E-1,4.667294312E-1,9.863588562E0,9.875587171E0
1.036374296E1,1.456471252E-1,4.905299377E-1,9.871821442E0,9.885074167E0
1.037377196E1,1.517843628E-1,4.950205994E-1,9.872420197E0,9.885988288E0
1.038380196E1,1.528321838E-1,4.996609497E-1,9.858948212E0,9.872784743E0
1.039383096E1,1.636097717E-1,5.209167480E-1,9.848170624E0,9.863294939E0
1.040386096E1,1.507365417E-1,5.288502502E-1,9.903555450E0,9.918811151E0
1.041388996E1,1.447489929E-1,5.288502502E-1,9.933942261E0,9.949062453E0
1.042391996E1,1.504371643E-1,5.251080322E-1,9.881700897E0,9.896786469E0
1.043394896E1,1.930984497E-1,5.372328186E-1,9.751621399E0,9.768317461E0
1.044397896E1,2.067201233E-1,5.313949585E-1,9.710606689E0,9.727332424E0
1.045400796E1,1.736389160E-1,5.001100159E-1,9.769883423E0,9.784215993E0
1.046403796E1,1.246907043E-1,4.885839844E-1,9.813742218E0,9.826688069E0
1.047406696E1,1.344204712E-1,4.842430115E-1,9.847871246E0,9.860685992E0
1.048409696E1,1.396595764E-1,4.757107544E-1,9.892628174E0,9.905044054E0
1.049412596E1,1.489402771E-1,4.834945679E-1,9.902657318E0,9.915572206E0
1.050415596E1,1.332229614E-1,5.019062805E-1,9.905351715E0,9.918954122E0
1.051418496E1,1.145118713E-1,5.285508728E-1,9.880653076E0,9.895442598E0
1.052421496E1,1.278341675E-1,5.453160095E-1,9.832153931E0,9.848094335E0
1.053424396E1,1.240919495E-1,5.625302124E-1,9.807006226E0,9.823910126E0
1.054427296E1,1.410067749E-1,5.857319641E-1,9.813742218E0,9.832217510E0
1.055430296E1,1.440005493E-1,5.959107971E-1,9.833800507E0,9.852891872E0
1.056433196E1,1.471440125E-1,6.010002136E-1,9.843979340E0,9.863406199E0
1.057436196E1,1.498384094E-1,6.011499023E-1,9.849368134E0,9.868834044E0
1.058439096E1,1.344204712E-1,5.891748047E-1,9.836045837E0,9.854592510E0
1.059442096E1,1.209484863E-1,5.944139099E-1,9.852511597E0,9.871167165E0
1.060444996E1,1.148112488E-1,6.077362061E-1,9.849817200E0,9.869215966E0
1.061447996E1,1.181044006E-1,5.941145325E-1,9.843829651E0,9.862449134E0
1.062450879E1,1.193019104E-1,6.090834045E-1,9.834548950E0,9.854114298E0
1.063453879E1,1.341210938E-1,6.206094360E-1,9.823771362E0,9.844268806E0
1.064456779E1,1.396595764E-1,6.259982300E-1,9.830657043E0,9.851558074E0
1.065459779E1,1.196012878E-1,6.300398254E-1,9.837393036E0,9.858273500E0
1.066462679E1,1.184037781E-1,6.295907593E-1,9.837842102E0,9.858678471E0
1.067465679E1,1.155596924E-1,6.333329773E-1,9.845925293E0,9.866950369E0
1.068468579E1,1.049317932E-1,6.298901367E-1,9.831255798E0,9.851972535E0
1.069471579E1,1.010398865E-1,6.360273743E-1,9.843829651E0,9.864873140E0
1.070474479E1,1.038839722E-1,6.420149231E-1,9.856253815E0,9.877687700E0
1.071477479E1,1.094224548E-1,6.493496704E-1,9.846524048E0,9.868518840E0
1.072480379E1,1.128652954E-1,6.640191650E-1,9.852960663E0,9.875955339E0
1.073483379E1,1.233435059E-1,6.667135620E-1,9.843829651E0,9.867152719E0
1.074486279E1,1.166075134E-1,6.709048462E-1,9.827363892E0,9.850928468E0
1.075489279E1,1.158590698E-1,6.753955078E-1,9.836644592E0,9.860484737E0
1.076492179E1,1.136137390E-1,6.999444580E-1,9.833501129E0,9.859035185E0
1.077495179E1,1.164578247E-1,7.029382324E-1,9.841883698E0,9.867642033E0
1.078498079E1,9.759704590E-2,7.060816956E-1,9.831555176E0,9.857360383E0
1.079501079E1,1.158590698E-1,7.188052368E-1,9.832602997E0,9.859522604E0
1.080503979E1,1.098715210E-1,7.081773376E-1,9.828561401E0,9.854654033E0
1.081506979E1,1.001417542E-1,7.164102173E-1,9.826166382E0,9.852756860E0
1.082509879E1,1.080752563E-1,7.068301392E-1,9.824070740E0,9.850058630E0
1.083512779E1,8.936416626E-2,7.134164429E-1,9.820178833E0,9.846464405E0
1.084515779E1,8.786727905E-2,7.173083496E-1,9.829459534E0,9.855989380E0
1.085518679E1,9.295669556E-2,7.234455872E-1,9.838889923E0,9.865889184E0
1.086521679E1,9.774673462E-2,7.307803345E-1,9.832902374E0,9.860505232E0
1.087524579E1,9.145980835E-2,7.339237976E-1,9.838740234E0,9.866499807E0
1.088527579E1,7.679031372E-2,7.366181946E-1,9.837093658E0,9.864933591E0
1.089530479E1,9.490264893E-2,7.441026306E-1,9.832902374E0,9.861473741E0
1.090533479E1,8.547225952E-2,7.545808411E-1,9.828561401E0,9.857855597E0
1.091536379E1,8.113128662E-2,7.632627869E-1,9.822124786E0,9.852070223E0
1.092539379E1,8.966354370E-2,7.671546936E-1,9.807604980E0,9.837971403E0
1.093542279E1,8.487350464E-2,7.667056274E-1,9.819280701E0,9.849533720E0
1.094545279E1,8.457412720E-2,7.708969116E-1,9.819430389E0,9.850007513E0
1.095548179E1,8.247848511E-2,7.765850830E-1,9.827962646E0,9.858941975E0
1.096551179E1,8.217910767E-2,7.782316589E-1,9.819729767E0,9.850862430E0
1.097554079E1,7.394622803E-2,7.785310364E-1,9.842781830E0,9.873800320E0
1.098557079E1,6.691085815E-2,7.939489746E-1,9.841584320E0,9.873784177E0
1.099559979E1,7.005432129E-2,7.946974182E-1,9.854008484E0,9.886249784E0
1.100562979E1,8.187973022E-2,7.993377686E-1,9.885892181E0,9.918493302E0
1.101565879E1,8.038284302E-2,8.101153564E-1,9.867480469E0,9.901005964E0
1.102568879E1,6.002517700E-2,8.303233337E-1,9.813891907E0,9.849137740E0
1.103571779E1,7.170089722E-2,8.419990540E-1,9.768685913E0,9.805168428E0
1.104574779E1,5.254074097E-2,8.571176147E-1,9.738897858E0,9.776683621E0
1.105577679E1,4.326004028E-2,8.499325562E-1,9.789792023E0,9.826712809E0
1.106580679E1,7.214996338E-2,8.366102600E-1,9.854158173E0,9.889871366E0
1.107583579E1,5.777984619E-2,8.310717773E-1,9.849966888E0,9.885133611E0
1.108586579E1,7.544311523E-2,8.390052795E-1,9.811047821E0,9.847145824E0
1.109589479E1,1.098715210E-1,8.425978088E-1,9.804012451E0,9.840767397E0
1.110592479E1,1.137634277E-1,8.301736450E-1,9.802066498E0,9.837816731E0
1.111595379E1,8.562194824E-2,8.336164856E-1,9.856852570E0,9.892410735E0
1.112598379E1,7.155120850E-2,8.165519714E-1,9.824070740E0,9.858206865E0
1.113601279E1,8.232879639E-2,8.181985474E-1,9.724378052E0,9.759085786E0
1.114604279E1,8.831634521E-2,8.205935669E-1,9.639504547E0,9.674772426E0
1.115607179E1,8.187973022E-2,8.288264465E-1,9.704768829E0,9.740441243E0
1.116610179E1,7.035369873E-2,8.415499878E-1,9.847721558E0,9.883864421E0
1.117613079E1,4.161346436E-2,8.463400269E-1,9.942025452E0,9.978070615E0
1.118616079E1,1.751358032E-2,8.887019348E-1,9.951605530E0,9.991223673E0
1.119618979E1,4.790039063E-2,9.113049316E-1,9.884544983E0,9.926580511E0
1.120621979E1,7.993377686E-2,9.511221313E-1,9.827513580E0,9.873755410E0
1.121624879E1,8.861572266E-2,9.719288635E-1,9.811796265E0,9.860215231E0
1.122627779E1,1.077758789E-1,9.919871521E-1,9.791139221E0,9.841852539E0
1.123630779E1,1.038839722E-1,9.831555176E-1,9.783355408E0,9.833180039E0
1.124633779E1,1.020877075E-1,9.915380859E-1,9.787397003E0,9.838023672E0
1.125636679E1,1.004411316E-1,9.774673462E-1,9.803264008E0,9.852386312E0
1.126639579E1,9.415420532E-2,9.641450500E-1,9.851314087E0,9.898829725E0
1.127642579E1,1.055305481E-1,9.363029480E-1,9.862989807E0,9.907894218E0
1.128645479E1,9.774673462E-2,9.151968384E-1,9.876910858E0,9.919703009E0
1.129648479E1,8.891510010E-2,9.080117798E-1,9.858050079E0,9.900178920E0
1.130651379E1,8.307723999E-2,8.972341919E-1,9.833501129E0,9.874698754E0
1.131654379E1,7.514373779E-2,9.183403015E-1,9.801767120E0,9.844980151E0
1.132657279E1,9.026229858E-2,9.367520142E-1,9.791139221E0,9.836262444E0
1.133660279E1,8.307723999E-2,9.503736877E-1,9.805659027E0,9.851957213E0
1.134663179E1,1.022373962E-1,9.798623657E-1,9.812095642E0,9.861430101E0
1.135666179E1,9.340576172E-2,9.825567627E-1,9.814191284E0,9.863695707E0
1.136669079E1,7.798782349E-2,1.000669098E0,9.825118561E0,9.876253109E0
1.137672079E1,7.319778442E-2,1.018032990E0,9.829758911E0,9.882606404E0
1.138674979E1,6.466552734E-2,1.015637970E0,9.811646576E0,9.864284599E0
1.139677979E1,9.610015869E-2,1.044228516E0,9.800419922E0,9.856362365E0
1.140680879E1,8.592132568E-2,1.048419800E0,9.817933502E0,9.874127040E0
1.141683879E1,6.750961304E-2,1.052760773E0,9.880503387E0,9.936659901E0
1.142686779E1,6.002517700E-2,1.048419800E0,9.873767395E0,9.929454651E0
1.143689779E1,9.610015869E-2,1.064735870E0,9.747729492E0,9.806178051E0
1.144692679E1,1.225950623E-1,1.056952057E0,9.674082642E0,9.732422728E0
1.145695679E1,1.085243225E-1,1.037941589E0,9.708061981E0,9.763993430E0
1.146698579E1,6.271957397E-2,1.032253418E0,9.772128754E0,9.826697372E0
1.147701579E1,5.613327026E-2,1.008452911E0,9.830207977E0,9.881959173E0
1.148704479E1,5.852828979E-2,9.892927551E-1,9.867929535E0,9.917568201E0
1.149707479E1,4.939727783E-2,9.922865295E-1,9.854307861E0,9.904264540E0
1.150710379E1,6.271957397E-2,9.996212769E-1,9.843081207E0,9.893908434E0
1.151713379E1,5.748046875E-2,1.019529877E0,9.847571869E0,9.900374583E0
1.152716279E1,5.089416504E-2,1.034199371E0,9.802515564E0,9.857051787E0
1.153719279E1,6.077362061E-2,1.053509216E0,9.788594513E0,9.845311455E0
1.154722179E1,7.200027466E-2,1.065184937E0,9.777367859E0,9.835482969E0
1.155725179E1,6.271957397E-2,1.066831512E0,9.780062256E0,9.838276320E0
1.156728079E1,6.242019653E-2,1.061293030E0,9.786349182E0,9.843925512E0
1.157731079E1,5.763015747E-2,1.055754547E0,9.815388794E0,9.872172814E0
1.158733979E1,6.391708374E-2,1.045276337E0,9.815388794E0,9.871096453E0
1.159736979E1,4.445755005E-2,1.029559021E0,9.814340973E0,9.868295546E0
1.160739879E1,4.445755005E-2,1.033750305E0,9.798324280E0,9.852805431E0
1.161742883E1,4.625381470E-2,1.039288788E0,9.797575836E0,9.852652073E0
1.162745783E1,4.400848389E-2,1.050066376E0,9.792636108E0,9.848872935E0
1.163748783E1,5.269042969E-2,1.050814819E0,9.776918793E0,9.833368149E0
1.164751683E1,5.673202515E-2,1.058299255E0,9.785900116E0,9.843122315E0
1.165754683E1,4.385879517E-2,1.062939606E0,9.779313812E0,9.837008836E0
1.166757583E1,6.391708374E-2,1.065484314E0,9.812395020E0,9.870280555E0
1.167760583E1,6.182144165E-2,1.062041473E0,9.823771362E0,9.881206291E0
1.168763483E1,6.840774536E-2,1.082399139E0,9.812245331E0,9.872002125E0
1.169766483E1,4.849914551E-2,1.083746338E0,9.807155914E0,9.866973468E0
1.170769383E1,4.849914551E-2,1.062340851E0,9.812844086E0,9.870300365E0
1.171772383E1,5.209167480E-2,1.062191162E0,9.794432373E0,9.851998230E0
1.172775283E1,4.355941772E-2,1.068328400E0,9.802964630E0,9.861102298E0
1.173778283E1,5.583389282E-2,1.067130890E0,9.802066498E0,9.860141651E0
1.174781183E1,5.119354248E-2,1.087189178E0,9.807904358E0,9.868109697E0
1.175784183E1,5.179229736E-2,1.085991669E0,9.807006226E0,9.867088297E0
1.176787083E1,4.849914551E-2,1.090033264E0,9.800868988E0,9.861417627E0
1.177790083E1,4.760101318E-2,1.090033264E0,9.797575836E0,9.858140324E0
1.178792983E1,4.281097412E-2,1.087638245E0,9.793983307E0,9.854283269E0
1.179795983E1,4.176315308E-2,1.081650696E0,9.810449066E0,9.869985981E0
1.180798883E1,3.936813354E-2,1.083896027E0,9.786798248E0,9.846715209E0
1.181801883E1,3.113525391E-2,1.067729645E0,9.783954163E0,9.842092006E0
1.182804783E1,4.266128540E-2,1.064436493E0,9.784103851E0,9.841927312E0
1.183807783E1,4.176315308E-2,1.090632019E0,9.785750427E0,9.846427463E0
1.184810683E1,4.385879517E-2,1.081201630E0,9.800719299E0,9.860274811E0
1.185813683E1,3.981719971E-2,1.080004120E0,9.794282684E0,9.853728615E0
1.186816583E1,3.622467041E-2,1.092577972E0,9.807604980E0,9.868341011E0
1.187819583E1,3.921844482E-2,1.091530151E0,9.805659027E0,9.866302505E0
1.188822483E1,2.978805542E-2,1.094074860E0,9.810898132E0,9.871758166E0
1.189825483E1,3.008743286E-2,1.075214081E0,9.804162140E0,9.862990715E0
1.190828383E1,3.652404785E-2,1.083147583E0,9.794432373E0,9.854209669E0
1.191831383E1,3.532653809E-2,1.086590424E0,9.798473969E0,9.858601261E0
1.192834283E1,2.769241333E-2,1.090781708E0,9.794132996E0,9.854725402E0
1.193837283E1,3.188369751E-2,1.086590424E0,9.795929260E0,9.856060338E0
1.194840183E1,3.876937866E-2,1.096769257E0,9.792187042E0,9.853493438E0
1.195843183E1,3.173400879E-2,1.085542603E0,9.791288910E0,9.851332311E0
1.196846083E1,1.871109009E-2,1.082099762E0,9.817634125E0,9.877106348E0
1.197849083E1,1.437011719E-2,1.082698517E0,9.804910583E0,9.864517937E0
1.198851983E1,1.721420288E-2,1.090482330E0,9.812993774E0,9.873413536E0
1.199854983E1,2.350112915E-2,1.093326416E0,9.840237122E0,9.900817217E0
1.200857883E1,3.802093506E-2,1.102756805E0,9.831704865E0,9.893429067E0
1.201860883E1,2.694396973E-2,1.107846222E0,9.774823151E0,9.837439548E0
1.202863783E1,6.436614990E-3,1.118474121E0,9.727222137E0,9.791316372E0
1.203866783E1,-8.532257080E-3,1.127006378E0,9.727820892E0,9.792891069E0
1.204869683E1,3.592529297E-3,1.116228790E0,9.788744202E0,9.852182127E0
1.205872683E1,1.407073975E-2,1.093476105E0,9.839189301E0,9.899774445E0
1.206875583E1,2.380050659E-2,1.089733887E0,9.840087433E0,9.900273082E0
1.207878583E1,4.385879517E-2,1.087039490E0,9.795779572E0,9.856007095E0
1.208881483E1,6.481521606E-2,1.078207855E0,9.795180817E0,9.854557343E0
1.209884483E1,6.691085815E-2,1.067130890E0,9.828561401E0,9.886549682E0
1.210887383E1,5.284011841E-2,1.065334625E0,9.817783813E0,9.875556134E0
1.211890383E1,2.888992310E-2,1.085542603E0,9.778415680E0,9.838528883E0
1.212893283E1,1.856140137E-2,1.074465637E0,9.693991241E0,9.753373115E0
1.213896283E1,2.020797729E-2,1.070424042E0,9.646839294E0,9.706066369E0
1.214899183E1,2.365081787E-2,1.069376221E0,9.707463226E0,9.766215600E0
1.215902183E1,2.020797729E-2,1.077160034E0,9.841734009E0,9.900525764E0
1.216905083E1,4.490661621E-4,1.072968750E0,9.958191833E0,1.001582981E1
1.217908083E1,1.496887207E-3,1.105900269E0,9.924811249E0,9.986235325E0
1.218910983E1,2.305206299E-2,1.124611359E0,9.831405487E0,9.895545258E0
1.219913983E1,4.550537109E-2,1.137634277E0,9.782756653E0,9.848787246E0
1.220916883E1,5.718109131E-2,1.161135406E0,9.771380310E0,9.840293607E0
1.221919883E1,8.008346558E-2,1.168470154E0,9.790690155E0,9.860494388E0
1.222922783E1,9.056167603E-2,1.175056458E0,9.791139221E0,9.861813542E0
1.223925783E1,8.352630615E-2,1.171463928E0,9.793534241E0,9.863702008E0
1.224928683E1,5.927673340E-2,1.137334900E0,9.783056030E0,9.849123296E0
1.225931683E1,5.718109131E-2,1.123862915E0,9.821675720E0,9.885931999E0
1.226934583E1,6.706054688E-2,1.088835754E0,9.847272491E0,9.907514115E0
1.227937583E1,5.448669434E-2,1.081501007E0,9.843230896E0,9.902616205E0
1.228940483E1,5.703140259E-2,1.075064392E0,9.843230896E0,9.901929635E0
1.229943483E1,4.505630493E-2,1.061742096E0,9.804611206E0,9.862034641E0
1.230946383E1,5.538482666E-2,1.083596649E0,9.779463501E0,9.839469271E0
1.231949383E1,5.852828979E-2,1.098565521E0,9.784403229E0,9.846055977E0
1.232952283E1,6.466552734E-2,1.102906494E0,9.793234863E0,9.855355572E0
1.233955283E1,4.879852295E-2,1.135089569E0,9.797875214E0,9.863527175E0
1.234958183E1,5.373825073E-2,1.139430542E0,9.806407471E0,9.872528412E0
1.235961183E1,6.556365967E-2,1.150357819E0,9.826316071E0,9.893639837E0
1.236964083E1,4.954696655E-2,1.158141632E0,9.827214203E0,9.895346681E0
1.237967083E1,5.328918457E-2,1.159488831E0,9.796228638E0,9.864752891E0
1.238969983E1,7.394622803E-2,1.172811127E0,9.779164124E0,9.849518005E0
1.239972983E1,6.706054688E-2,1.171164551E0,9.799521790E0,9.869485844E0
1.240975883E1,5.014572144E-2,1.183738403E0,9.851014709E0,9.922007962E0
1.241978883E1,4.520599365E-2,1.182391205E0,9.819879456E0,9.890911235E0
1.242981783E1,7.289840698E-2,1.167871399E0,9.733209686E0,9.803295802E0
1.243984783E1,8.397537231E-2,1.158441010E0,9.659712524E0,9.729289979E0
1.244987683E1,7.200027466E-2,1.142574005E0,9.682016144E0,9.749466447E0
1.245990683E1,3.891906738E-2,1.130598907E0,9.767488403E0,9.832781819E0
1.246993583E1,3.038681030E-2,1.108894043E0,9.831704865E0,9.894088634E0
1.247996583E1,3.622467041E-2,1.092577972E0,9.858499146E0,9.918923543E0
1.248999583E1,5.433700562E-2,1.102906494E0,9.852661285E0,9.914347666E0
1.250002483E1,5.059478760E-2,1.119072876E0,9.810898132E0,9.874644606E0
1.251005483E1,4.340972900E-2,1.125808868E0,9.790839844E0,9.855448993E0
1.252008383E1,4.415817261E-2,1.148262177E0,9.803413696E0,9.870530688E0
1.253011383E1,4.086502075E-2,1.162632294E0,9.785151672E0,9.854063987E0
1.254014283E1,5.313949585E-2,1.152453461E0,9.778265991E0,9.846088491E0
1.255017283E1,6.167175293E-2,1.147513733E0,9.789492645E0,9.856711288E0
1.256020183E1,5.358856201E-2,1.128353577E0,9.807305603E0,9.872147523E0
1.257023183E1,4.924758911E-2,1.131796417E0,9.823921051E0,9.889024890E0
1.258026083E1,3.787124634E-2,1.134939880E0,9.815688171E0,9.881156665E0
1.259029083E1,3.278182983E-2,1.120719452E0,9.798174591E0,9.862114989E0
1.260031983E1,3.832031250E-2,1.128802643E0,9.787846069E0,9.852796280E0
1.261034983E1,5.074447632E-2,1.133442993E0,9.788145447E0,9.853682525E0
1.262037958E1,5.538482666E-2,1.144519958E0,9.779912567E0,9.846810815E0
1.263040958E1,4.251159668E-2,1.137484589E0,9.792336731E0,9.858272520E0
1.264043858E1,4.715194702E-2,1.138532410E0,9.787546692E0,9.853656661E0
1.265046858E1,3.637435913E-2,1.146914978E0,9.790690155E0,9.857705147E0
1.266049758E1,4.745132446E-2,1.161434784E0,9.792187042E0,9.860938569E0
1.267052758E1,5.538482666E-2,1.155896301E0,9.796827393E0,9.864937440E0
1.268055658E1,6.062393188E-2,1.140478363E0,9.792636108E0,9.859010504E0
1.269058658E1,3.996688843E-2,1.140029297E0,9.789492645E0,9.855730841E0
1.270061558E1,3.278182983E-2,1.143172760E0,9.788594513E0,9.855176363E0
1.271064558E1,3.981719971E-2,1.134640503E0,9.795929260E0,9.861502145E0
1.272067458E1,3.772155762E-2,1.131047974E0,9.802665253E0,9.867772722E0
1.273070458E1,3.397933960E-2,1.136137390E0,9.817185059E0,9.882767084E0
1.274073358E1,4.415817261E-2,1.149010620E0,9.811796265E0,9.878943329E0
1.275076358E1,3.023712158E-2,1.137484589E0,9.794881439E0,9.860754935E0
1.276079258E1,4.400848389E-2,1.144370270E0,9.784702606E0,9.851493549E0
1.277082258E1,5.029541016E-2,1.148411865E0,9.783205719E0,9.850507275E0
1.278085158E1,4.834945679E-2,1.133592682E0,9.786498871E0,9.852052080E0
1.279088158E1,4.700225830E-2,1.138083344E0,9.784103851E0,9.850184317E0
1.280091058E1,4.909790039E-2,1.140029297E0,9.782606964E0,9.848932755E0
1.281094058E1,3.861968994E-2,1.127605133E0,9.809850311E0,9.874520138E0
1.282096958E1,2.499801636E-2,1.120869141E0,9.811197510E0,9.875047803E0
1.283099958E1,2.874023438E-2,1.123413849E0,9.791139221E0,9.855419419E0
1.284102858E1,2.544708252E-2,1.128802643E0,9.788893890E0,9.853795541E0
1.285105858E1,2.694396973E-2,1.119372253E0,9.794432373E0,9.858226297E0
1.286108758E1,2.769241333E-2,1.140478363E0,9.797875214E0,9.864066933E0
1.287111758E1,3.218307495E-2,1.143771515E0,9.787696381E0,9.854351804E0
1.288114658E1,1.676513672E-2,1.134490814E0,9.791588287E0,9.857106658E0
1.289117658E1,2.454895020E-2,1.131646729E0,9.809401245E0,9.874491367E0
1.290120658E1,2.709365845E-2,1.139131165E0,9.798923035E0,9.864950406E0
1.291123558E1,2.409988403E-2,1.132544861E0,9.807155914E0,9.872362726E0
1.292126558E1,8.532257080E-3,1.130898285E0,9.793534241E0,9.858616366E0
1.293129458E1,1.466949463E-2,1.126557312E0,9.814191284E0,9.878648548E0
1.294132458E1,2.260299683E-2,1.138532410E0,9.815987549E0,9.881820607E0
1.295135358E1,3.053649902E-2,1.143322449E0,9.800719299E0,9.867229474E0
1.296138358E1,1.197509766E-2,1.152752838E0,9.761201477E0,9.829040481E0
1.297141258E1,-7.484436035E-4,1.157692566E0,9.725874939E0,9.794533984E0
1.298144258E1,-2.395019531E-3,1.156944122E0,9.757758636E0,9.826107014E0
1.299147158E1,7.634124756E-3,1.133293304E0,9.812993774E0,9.878221440E0
1.300150158E1,2.320175171E-2,1.117575989E0,9.850865021E0,9.914083723E0
1.301153058E1,3.248245239E-2,1.109492798E0,9.823621674E0,9.886130293E0
1.302156058E1,6.511459351E-2,1.099313965E0,9.765243073E0,9.827141160E0
1.303158958E1,8.891510010E-2,1.103205872E0,9.761201477E0,9.823747929E0
1.304161958E1,7.499404907E-2,1.107397156E0,9.786199493E0,9.848941725E0
1.305164858E1,2.888992310E-2,1.109792175E0,9.785600739E0,9.848373222E0
1.306167858E1,5.089416504E-3,1.105451202E0,9.754764862E0,9.817203562E0
1.307170758E1,3.412902832E-2,1.101559296E0,9.692194977E0,9.754652282E0
1.308173758E1,2.829116821E-2,1.091230774E0,9.670789490E0,9.732201927E0
1.309176658E1,3.547622681E-2,1.106798401E0,9.738448792E0,9.801206361E0
1.310179658E1,3.218307495E-2,1.105900269E0,9.863139496E0,9.924997323E0
1.311182558E1,1.601669312E-2,1.130000153E0,9.974058838E0,1.003787859E1
1.312185558E1,1.721420288E-2,1.143621826E0,9.903555450E0,9.969382015E0
1.313188458E1,1.032852173E-2,1.180295563E0,9.801018677E0,9.871837286E0
1.314191458E1,4.326004028E-2,1.204844513E0,9.749076691E0,9.823340473E0
1.315194458E1,5.942642212E-2,1.212179260E0,9.751920776E0,9.827149581E0
1.316197358E1,7.259902954E-2,1.184486847E0,9.773625641E0,9.845406943E0
1.317200358E1,8.202941895E-2,1.181343384E0,9.782008209E0,9.853425071E0
1.318203258E1,8.262817383E-2,1.153650970E0,9.786349182E0,9.854459310E0
1.319206258E1,6.870712280E-2,1.146765289E0,9.792187042E0,9.859346752E0
1.320209158E1,5.882766724E-2,1.127904510E0,9.811197510E0,9.875992398E0
1.321212158E1,4.520599365E-2,1.106349335E0,9.836644592E0,9.898769078E0
1.322215058E1,4.550537109E-2,1.085841980E0,9.855954437E0,9.915692685E0
1.323218058E1,4.879852295E-2,1.085692291E0,9.840985565E0,9.900813398E0
1.324220958E1,5.493576050E-2,1.100212097E0,9.807754669E0,9.869424312E0
1.325223958E1,5.463638306E-2,1.118174744E0,9.756710815E0,9.820728376E0
1.326226858E1,4.251159668E-2,1.131946106E0,9.748927002E0,9.814514095E0
1.327229858E1,4.775070190E-2,1.158890076E0,9.779912567E0,9.848451460E0
1.328232758E1,6.032455444E-2,1.170266418E0,9.815089417E0,9.884793513E0
1.329235758E1,6.301895142E-2,1.168470154E0,9.840536499E0,9.909866421E0
1.330238658E1,5.553451538E-2,1.185534668E0,9.829309845E0,9.900702428E0
1.331241658E1,6.167175293E-2,1.189576263E0,9.827812958E0,9.899737503E0
1.332244558E1,6.376739502E-2,1.195563812E0,9.794881439E0,9.867783009E0
1.333247558E1,5.897735596E-2,1.198108521E0,9.787995758E0,9.861227272E0
1.334250458E1,5.733078003E-2,1.191821594E0,9.812694397E0,9.884973286E0
1.335253458E1,3.442840576E-2,1.196461945E0,9.800719299E0,9.873540666E0
1.336256358E1,5.493576050E-2,1.200503540E0,9.762548676E0,9.836238271E0
1.337259358E1,8.592132568E-2,1.196911011E0,9.709259491E0,9.783133358E0
1.338262258E1,6.137237549E-2,1.173709259E0,9.692793732E0,9.763790776E0
1.339265258E1,5.523513794E-2,1.154998169E0,9.725874939E0,9.794371599E0
1.340268258E1,4.191284180E-2,1.128802643E0,9.796078949E0,9.860989548E0
1.341271158E1,3.338058472E-2,1.125808868E0,9.838590546E0,9.902849277E0
1.342274158E1,4.430786133E-2,1.119072876E0,9.845027161E0,9.908523961E0
1.343277058E1,5.134323120E-2,1.124012604E0,9.841434631E0,9.905547742E0
1.344280058E1,5.358856201E-2,1.145567780E0,9.831854553E0,9.898513082E0
1.345282958E1,4.176315308E-2,1.132544861E0,9.792935486E0,9.858295362E0
1.346285958E1,4.760101318E-2,1.146765289E0,9.766590271E0,9.833799978E0
1.347288858E1,4.969665527E-2,1.162632294E0,9.772428131E0,9.841470174E0
1.348291858E1,3.158432007E-2,1.174457703E0,9.786349182E0,9.856621063E0
1.349294758E1,3.607498169E-2,1.162781982E0,9.808054047E0,9.876805532E0
1.350297758E1,4.760101318E-2,1.161584473E0,9.815987549E0,9.884591843E0
1.351300658E1,3.382965088E-2,1.163829803E0,9.809101868E0,9.877961516E0
1.352303658E1,3.113525391E-2,1.151705017E0,9.796378326E0,9.863894878E0
1.353306558E1,3.248245239E-2,1.152603149E0,9.786947937E0,9.854638454E0
1.354309558E1,2.409988403E-2,1.137334900E0,9.797575836E0,9.863397171E0
1.355312458E1,4.340972900E-2,1.154698792E0,9.789792023E0,9.857750329E0
1.356315458E1,4.340972900E-2,1.150806885E0,9.795929260E0,9.863390440E0
1.357318358E1,5.583389282E-2,1.160985718E0,9.795629883E0,9.864348436E0
1.358321358E1,4.445755005E-2,1.158291321E0,9.788594513E0,9.856987258E0
1.359324358E1,4.775070190E-2,1.156195679E0,9.782906342E0,9.851107809E0
1.360327258E1,5.059478760E-2,1.159039764E0,9.807155914E0,9.875537461E0
1.361330258E1,4.296066284E-2,1.154100037E0,9.804012451E0,9.871800882E0
1.362333092E1,3.787124634E-2,1.146166534E0,9.798923035E0,9.865800758E0
1.363336092E1,4.296066284E-2,1.135388947E0,9.798324280E0,9.863980554E0
1.364338992E1,4.041595459E-2,1.145418091E0,9.789492645E0,9.856357456E0
1.365341992E1,4.311035156E-2,1.135388947E0,9.789043579E0,9.854762339E0
1.366344892E1,2.544708252E-2,1.140777740E0,9.800719299E0,9.866920502E0
1.367347892E1,3.652404785E-2,1.144070892E0,9.807604980E0,9.874175797E0
1.368350792E1,2.305206299E-2,1.138682098E0,9.806108093E0,9.872025337E0
1.369353792E1,3.278182983E-2,1.132694550E0,9.804461517E0,9.869728326E0
1.370356692E1,3.412902832E-2,1.133442993E0,9.782756653E0,9.848257995E0
1.371359692E1,3.787124634E-2,1.137634277E0,9.778265991E0,9.844294377E0
1.372362592E1,3.367996216E-2,1.131796417E0,9.793833618E0,9.859070667E0
1.373365592E1,3.203338623E-2,1.129102020E0,9.775571594E0,9.840614691E0
1.374368492E1,3.652404785E-2,1.115180969E0,9.794582062E0,9.857930836E0
1.375371492E1,3.442840576E-2,1.127904510E0,9.805509338E0,9.870226304E0
1.376374392E1,3.397933960E-2,1.119971008E0,9.783804474E0,9.847757087E0
1.377377392E1,3.966751099E-2,1.120719452E0,9.792636108E0,9.856637741E0
1.378380392E1,3.233276367E-2,1.108744354E0,9.795929260E0,9.858528771E0
1.379383292E1,4.071533203E-2,1.113534393E0,9.788744202E0,9.851960700E0
1.380386292E1,3.412902832E-2,1.109343109E0,9.797126770E0,9.859792081E0
1.381389192E1,2.335144043E-2,1.106049957E0,9.811945953E0,9.874116426E0
1.382392192E1,2.020797729E-2,1.112187195E0,9.815239105E0,9.878071037E0
1.383395092E1,2.409988403E-2,1.104403381E0,9.808203735E0,9.870215203E0
1.384398092E1,1.152603149E-2,1.098565521E0,9.824070740E0,9.885309553E0
1.385400992E1,2.125579834E-2,1.118623810E0,9.839338989E0,9.902745214E0
1.386403992E1,2.380050659E-2,1.111139374E0,9.819131012E0,9.881828323E0
1.387406892E1,3.098556519E-2,1.107397156E0,9.800419922E0,9.862835252E0
1.388409892E1,1.257385254E-2,1.122066650E0,9.772278442E0,9.836494173E0
1.389412792E1,-8.382568359E-3,1.119372253E0,9.734407196E0,9.798558464E0
1.390415792E1,-1.362167358E-2,1.099763031E0,9.737700348E0,9.799615928E0
1.391418792E1,1.062789917E-2,1.086440735E0,9.808054047E0,9.868048977E0
1.392421692E1,2.245330811E-2,1.061742096E0,9.853409729E0,9.910473436E0
1.393424692E1,3.832031250E-2,1.061293030E0,9.856852570E0,9.913897010E0
1.394427592E1,3.562591553E-2,1.044677582E0,9.800868988E0,9.856452373E0
1.395430592E1,7.229965210E-2,1.034947815E0,9.739346924E0,9.794448567E0
1.396433492E1,7.125183105E-2,1.031504974E0,9.759255524E0,9.813875265E0
1.397436492E1,5.703140259E-2,1.027014313E0,9.770781555E0,9.824773951E0
1.398439392E1,3.023712158E-2,1.024768982E0,9.762848053E0,9.816530337E0
1.399442392E1,2.305206299E-2,1.024469604E0,9.741891632E0,9.795637904E0
1.400445292E1,2.484832764E-2,1.008153534E0,9.724228363E0,9.776380120E0
1.401448292E1,2.739303589E-2,1.025218048E0,9.762099609E0,9.815824530E0
1.402451192E1,3.457809448E-2,1.018032990E0,9.867031403E0,9.919470526E0
1.403454192E1,3.397933960E-2,1.035396881E0,9.971963196E0,1.002562972E1
1.404457092E1,2.574645996E-2,1.059796143E0,9.969717865E0,1.002592166E1
1.405460092E1,2.844085693E-2,1.086590424E0,9.850715332E0,9.910503528E0
1.406463092E1,3.487747192E-2,1.101708984E0,9.752369843E0,9.814463647E0
1.407465992E1,6.631210327E-2,1.105750580E0,9.749974823E0,9.812700479E0
1.408468992E1,7.529342651E-2,1.090182953E0,9.765841827E0,9.826791672E0
1.409471892E1,7.649093628E-2,1.057550812E0,9.786498871E0,9.843770859E0
1.410474892E1,8.861572266E-2,1.033001862E0,9.794731750E0,9.849452556E0
1.411477792E1,1.055305481E-1,1.000818787E0,9.807754669E0,9.859250813E0
1.412480792E1,8.681945801E-2,9.717791748E-1,9.812544708E0,9.860929268E0
1.413483692E1,8.637039185E-2,9.243278503E-1,9.843380585E0,9.887061401E0
1.414486692E1,7.753875732E-2,9.023236084E-1,9.888736267E0,9.930121103E0
1.415489592E1,7.289840698E-2,8.940907288E-1,9.881551208E0,9.922185581E0
1.416492592E1,6.870712280E-2,8.946894836E-1,9.831555176E0,9.872419517E0
1.417495492E1,6.421646118E-2,9.110055542E-1,9.789642334E0,9.832148895E0
1.418498492E1,6.960525513E-2,9.339079285E-1,9.764943695E0,9.809747921E0
1.419501392E1,7.050338745E-2,9.565109253E-1,9.762997742E0,9.809995351E0
1.420504392E1,8.352630615E-2,9.770182800E-1,9.787995758E0,9.836991528E0
1.421507392E1,6.556365967E-2,9.862989807E-1,9.829010468E0,9.878589527E0
1.422510292E1,6.451583862E-2,9.768685913E-1,9.837991791E0,9.886582676E0
1.423513292E1,7.200027466E-2,9.716294861E-1,9.845925293E0,9.894012976E0
1.424516192E1,1.002914429E-1,9.755213928E-1,9.836494904E0,9.885258335E0
1.425519192E1,1.133143616E-1,9.749226379E-1,9.858349457E0,9.907086772E0
1.426522092E1,7.843688965E-2,9.584568787E-1,9.882149963E0,9.928830738E0
1.427525092E1,7.155120850E-2,9.602531433E-1,9.840237122E0,9.887237849E0
1.428527992E1,9.325607300E-2,9.618997192E-1,9.761650543E0,9.809371493E0
1.429530992E1,1.221459961E-1,9.334588623E-1,9.725575562E0,9.771032959E0
1.430533892E1,1.196012878E-1,9.107061768E-1,9.758357391E0,9.801491172E0
1.431536892E1,7.469467163E-2,8.951385498E-1,9.791887665E0,9.833001391E0
1.432539792E1,5.987548828E-2,8.771759033E-1,9.799671478E0,9.839033678E0
1.433542792E1,6.795867920E-2,8.536747742E-1,9.795031128E0,9.832396137E0
1.434545792E1,8.801696777E-2,8.587641907E-1,9.818981323E0,9.856856352E0
1.435548692E1,8.696914673E-2,8.460406494E-1,9.843829651E0,9.880502548E0
1.436551692E1,9.879455566E-2,8.547225952E-1,9.865983582E0,9.903430876E0
1.437554592E1,8.726852417E-2,8.583151245E-1,9.866582336E0,9.904229786E0
1.438557592E1,8.981323242E-2,8.617579651E-1,9.833950195E0,9.872044857E0
1.439560492E1,9.205856323E-2,8.740324402E-1,9.795929260E0,9.835275164E0
1.440563492E1,9.190887451E-2,8.795709229E-1,9.801318054E0,9.841134480E0
1.441566392E1,9.699829102E-2,8.689430237E-1,9.809101868E0,9.847992186E0
1.442569392E1,1.025367737E-1,8.509803772E-1,9.826765137E0,9.864075955E0
1.443572292E1,8.876541138E-2,8.431965637E-1,9.819280701E0,9.855817228E0
1.444575292E1,7.738906860E-2,8.258326721E-1,9.821675720E0,9.856637491E0
1.445578292E1,8.741821289E-2,8.117619324E-1,9.839039612E0,9.872856722E0
1.446581192E1,9.041198730E-2,8.128097534E-1,9.835297394E0,9.869240541E0
1.447584192E1,1.026864624E-1,8.083190918E-1,9.832153931E0,9.865859070E0
1.448587092E1,9.684860229E-2,8.298742676E-1,9.819580078E0,9.855060825E0
1.449590092E1,1.161584473E-1,8.303233337E-1,9.799072723E0,9.834874471E0
1.450592992E1,1.116677856E-1,8.403524780E-1,9.817634125E0,9.854166722E0
1.451595992E1,9.819580078E-2,8.343649292E-1,9.828112335E0,9.863954548E0
1.452598892E1,9.999206543E-2,8.062234497E-1,9.830058289E0,9.863571393E0
1.453601892E1,9.340576172E-2,8.184979248E-1,9.837842102E0,9.872274344E0
1.454604792E1,1.064286804E-1,8.155041504E-1,9.838291168E0,9.872605897E0
1.455607792E1,9.475296021E-2,7.958949280E-1,9.824968872E0,9.857608239E0
1.456610692E1,1.073268127E-1,7.801776123E-1,9.837243347E0,9.868715865E0
1.457613692E1,9.909393311E-2,7.743397522E-1,9.840087433E0,9.871005134E0
1.458616692E1,9.490264893E-2,7.710466003E-1,9.832004242E0,9.862648062E0
1.459619592E1,9.295669556E-2,7.705975342E-1,9.825118561E0,9.855730122E0
1.460622592E1,8.981323242E-2,7.873626709E-1,9.816286926E0,9.848222957E0
1.461625492E1,1.019380188E-1,7.764353943E-1,9.811496887E0,9.842698535E0
1.462628542E1,9.939331055E-2,7.755372620E-1,9.814790039E0,9.845884449E0
1.463631442E1,9.430389404E-2,7.731422424E-1,9.828262024E0,9.859075847E0
1.464634442E1,1.152603149E-1,7.637118530E-1,9.814490662E0,9.844834569E0
1.465637342E1,1.019380188E-1,7.806266785E-1,9.805509338E0,9.837061693E0
1.466640342E1,1.076261902E-1,7.469467163E-1,9.825717316E0,9.854655426E0
1.467643242E1,9.580078125E-2,7.421566772E-1,9.861941986E0,9.890291910E0
1.468646242E1,1.023870850E-1,7.382647705E-1,9.862690430E0,9.890812934E0
1.469649242E1,9.295669556E-2,7.310797119E-1,9.832303619E0,9.859884023E0
1.470652142E1,9.969268799E-2,7.159611511E-1,9.815388794E0,9.841971153E0
1.471655142E1,7.948471069E-2,7.134164429E-1,9.827363892E0,9.853545651E0
1.472658042E1,9.071136475E-2,7.318281555E-1,9.845027161E0,9.872606586E0
1.473661042E1,8.158035278E-2,7.328759766E-1,9.853709106E0,9.881262354E0
1.474663942E1,7.963439941E-2,7.252418518E-1,9.826914825E0,9.853962267E0
1.475666942E1,7.529342651E-2,7.265890503E-1,9.809850311E0,9.837009905E0
1.476669842E1,6.286926270E-2,7.189549255E-1,9.794881439E0,9.821433253E0
1.477672842E1,6.975494385E-2,7.183561707E-1,9.803862762E0,9.830392993E0
1.478675742E1,6.496490479E-2,7.045848083E-1,9.840536499E0,9.865942367E0
1.479678742E1,6.870712280E-2,6.975494385E-1,9.859097900E0,9.883982360E0
1.480681742E1,8.577163696E-2,7.015910339E-1,9.854607239E0,9.879922600E0
1.481684642E1,1.200503540E-1,6.917115784E-1,9.797575836E0,9.822696639E0
1.482687642E1,1.460961914E-1,6.676116943E-1,9.723180542E0,9.747168272E0
1.483690542E1,1.378633118E-1,6.794371033E-1,9.758806458E0,9.783401481E0
1.484693542E1,1.092727661E-1,6.505471802E-1,9.776918793E0,9.799147578E0
1.485696442E1,8.038284302E-2,6.375242615E-1,9.799222412E0,9.820267739E0
1.486699442E1,7.035369873E-2,6.262976074E-1,9.808353424E0,9.828580530E0
1.487702342E1,6.331832886E-2,6.225553894E-1,9.792336731E0,9.812310792E0
1.488705342E1,7.753875732E-2,6.500981140E-1,9.851164398E0,9.872896222E0
1.489708342E1,8.083190918E-2,6.776408386E-1,9.941726074E0,9.965121587E0
1.490711242E1,8.322692871E-2,7.000941467E-1,9.958940277E0,9.983864481E0
1.491714242E1,7.963439941E-2,7.412585449E-1,9.890083466E0,9.918142811E0
1.492717142E1,9.145980835E-2,7.614665222E-1,9.799671478E0,9.829636679E0
1.493720142E1,9.505233765E-2,7.797285461E-1,9.755213928E0,9.786787539E0
1.494723042E1,1.008901978E-1,7.674540710E-1,9.769134979E0,9.799753202E0
1.495726042E1,1.181044006E-1,7.291337585E-1,9.823621674E0,9.851351556E0
1.496728942E1,1.363664246E-1,7.000941467E-1,9.851014709E0,9.876802034E0
1.497731942E1,1.475930786E-1,6.569837952E-1,9.871671753E0,9.894610383E0
1.498734842E1,1.401086426E-1,6.286926270E-1,9.861043854E0,9.882058021E0
1.499737842E1,1.257385254E-1,6.047424316E-1,9.877210236E0,9.896504718E0
1.500740842E1,1.234931946E-1,6.075865173E-1,9.878258057E0,9.897696408E0
1.501743742E1,1.299298096E-1,5.992039490E-1,9.867929535E0,9.886959110E0
1.502746742E1,1.130149841E-1,6.078858948E-1,9.843679962E0,9.863079278E0
1.503749642E1,1.176553345E-1,6.382727051E-1,9.811646576E0,9.833089207E0
1.504752642E1,1.140628052E-1,6.453080750E-1,9.816286926E0,9.838136097E0
1.505755542E1,1.167572021E-1,6.685098267E-1,9.809700623E0,9.833146187E0
1.506758542E1,1.169068909E-1,6.872209167E-1,9.831255798E0,9.855938838E0
1.507761442E1,1.169068909E-1,6.981481934E-1,9.846823425E0,9.872234281E0
1.508764442E1,1.067280579E-1,6.962022400E-1,9.849966888E0,9.875117019E0
1.509767442E1,1.267863464E-1,7.003935242E-1,9.856104126E0,9.881771825E0
1.510770342E1,1.365161133E-1,7.123686218E-1,9.855954437E0,9.882608136E0
1.511773342E1,1.209484863E-1,7.072792053E-1,9.906998291E0,9.932949590E0
1.512776242E1,1.064286804E-1,6.994953918E-1,9.892179108E0,9.917450699E0
1.513779242E1,1.187031555E-1,7.023394775E-1,9.828112335E0,9.853890767E0
1.514782142E1,1.487905884E-1,6.882687378E-1,9.769584045E0,9.794928530E0
1.515785142E1,1.746867371E-1,6.825805664E-1,9.802066498E0,9.827356680E0
1.516788042E1,1.422042847E-1,6.472540283E-1,9.836644592E0,9.858941965E0
1.517791042E1,1.064286804E-1,6.385720825E-1,9.810000000E0,9.831337720E0
1.518794042E1,1.052311707E-1,6.433621216E-1,9.790839844E0,9.812519211E0
1.519796942E1,1.296304321E-1,6.268963623E-1,9.799072723E0,9.819960760E0
1.520799942E1,1.374142456E-1,6.180647278E-1,9.848020935E0,9.868353612E0
1.521802842E1,1.202000427E-1,6.101312256E-1,9.896220703E0,9.915739628E0
1.522805842E1,1.284329224E-1,6.131250000E-1,9.905501404E0,9.925289686E0
1.523808742E1,1.432521057E-1,6.158193970E-1,9.887987823E0,9.908181362E0
1.524811742E1,1.377136230E-1,6.301895142E-1,9.834848328E0,9.855980189E0
1.525814642E1,1.354682922E-1,6.280938721E-1,9.830806732E0,9.851782305E0
1.526817642E1,1.454974365E-1,6.251000977E-1,9.833351440E0,9.854274209E0
1.527820642E1,1.323248291E-1,6.418652344E-1,9.828112335E0,9.849938726E0
1.528823542E1,1.212478638E-1,6.343807983E-1,9.820328522E0,9.841544204E0
1.529826542E1,1.178050232E-1,6.355783081E-1,9.817185059E0,9.838442981E0
1.530829442E1,1.173559570E-1,6.331832886E-1,9.827513580E0,9.848589578E0
1.531832442E1,1.303788757E-1,6.213578796E-1,9.827064514E0,9.847552043E0
1.532835342E1,1.311273193E-1,6.165678406E-1,9.861193542E0,9.881320173E0
1.533838342E1,1.448986816E-1,6.170169067E-1,9.869276733E0,9.889607107E0
1.534841242E1,1.463955688E-1,6.259982300E-1,9.849068756E0,9.870028410E0
1.535844242E1,1.339714050E-1,6.156697083E-1,9.848320312E0,9.868455325E0
1.536847242E1,1.317260742E-1,6.285429382E-1,9.831555176E0,9.852507049E0
1.537850142E1,1.281335449E-1,6.010002136E-1,9.832004242E0,9.851189110E0
1.538853142E1,1.333726501E-1,6.068380737E-1,9.840835876E0,9.860430592E0
1.539856042E1,1.272354126E-1,5.887257385E-1,9.849068756E0,9.867468886E0
1.540859042E1,1.196012878E-1,5.842350769E-1,9.832602997E0,9.850670880E0
1.541861942E1,1.324745178E-1,5.686674500E-1,9.849517822E0,9.866809692E0
1.542864942E1,1.266366577E-1,5.724096680E-1,9.840087433E0,9.857535714E0
1.543867842E1,1.266366577E-1,5.745053101E-1,9.862840118E0,9.880369851E0
1.544870842E1,1.200503540E-1,5.798941040E-1,9.860894165E0,9.878659980E0
1.545873842E1,1.215472412E-1,5.954617310E-1,9.829160156E0,9.847930635E0
1.546876742E1,1.291813660E-1,5.899232483E-1,9.833650818E0,9.852176697E0
1.547879742E1,1.300794983E-1,6.004014587E-1,9.847272491E0,9.866416680E0
1.548882642E1,1.428030396E-1,5.950126648E-1,9.829459534E0,9.848487574E0
1.549885642E1,1.297801208E-1,5.932164001E-1,9.823172607E0,9.841924032E0
1.550888542E1,1.380130005E-1,5.959107971E-1,9.855355682E0,9.874319870E0
1.551891542E1,1.296304321E-1,5.798941040E-1,9.877808990E0,9.895665297E0
1.552894442E1,1.290316772E-1,5.722599792E-1,9.867031403E0,9.884454429E0
1.553897442E1,1.287322998E-1,5.538482666E-1,9.823621674E0,9.840064161E0
1.554900442E1,1.371148682E-1,5.571414185E-1,9.827064514E0,9.843800283E0
1.555903342E1,1.178050232E-1,5.417234802E-1,9.835147705E0,9.850760008E0
1.556906342E1,1.025367737E-1,5.423222351E-1,9.857151947E0,9.872591945E0
1.557909242E1,1.305285645E-1,5.447172546E-1,9.864187317E0,9.880078239E0
1.558912242E1,1.070274353E-1,5.333409119E-1,9.843530273E0,9.858549368E0
1.559915142E1,1.059796143E-1,5.414241028E-1,9.790390778E0,9.805922869E0
1.560918142E1,1.005908203E-1,5.472619629E-1,9.773475952E0,9.789302649E0
1.561921142E1,1.038839722E-1,5.432203674E-1,9.829010468E0,9.844558244E0
1.562923921E1,1.151106262E-1,5.360353088E-1,9.887089691E0,9.902278873E0
1.563926921E1,1.148112488E-1,5.225633240E-1,9.893975372E0,9.908430891E0
1.564929821E1,1.264869690E-1,5.384303284E-1,9.872869263E0,9.888349390E0
1.565932821E1,1.483415222E-1,5.186714172E-1,9.784403229E0,9.799263839E0
1.566935721E1,1.704954529E-1,5.066963196E-1,9.746831360E0,9.761482030E0
1.567938721E1,1.432521057E-1,5.047503662E-1,9.762398987E0,9.776488535E0
1.568941621E1,1.097218323E-1,5.032534790E-1,9.790241089E0,9.803781083E0
1.569944621E1,9.954299927E-2,4.665797424E-1,9.819879456E0,9.831461640E0
1.570947621E1,9.086105347E-2,4.567002869E-1,9.821376343E0,9.832408868E0
1.571950521E1,9.714797974E-2,4.561015320E-1,9.827663269E0,9.838721038E0
1.572953521E1,1.185534668E-1,4.716691589E-1,9.911339264E0,9.923264217E0
1.573956421E1,1.219963074E-1,4.914280701E-1,1.001103195E1,1.002382888E1
1.574959421E1,1.257385254E-1,5.189707947E-1,9.965975647E0,9.980271111E0
1.575962321E1,1.116677856E-1,5.640270996E-1,9.858798523E0,9.875550849E0
1.576965321E1,1.064286804E-1,5.795947266E-1,9.778415680E0,9.796155895E0
1.577968321E1,1.293310547E-1,5.839356995E-1,9.743238831E0,9.761578271E0
1.578971221E1,1.559756470E-1,5.719606018E-1,9.779313812E0,9.797267271E0
1.579974221E1,1.754351807E-1,5.463638306E-1,9.868677979E0,9.885347540E0
1.580977121E1,1.682501221E-1,5.037025452E-1,9.891131287E0,9.905377453E0
1.581980121E1,1.731898499E-1,4.763095093E-1,9.905202026E0,9.918159741E0
1.582983021E1,1.728904724E-1,4.297563171E-1,9.906100159E0,9.916925026E0
1.583986021E1,1.552272034E-1,4.016148376E-1,9.904154205E0,9.913508990E0
1.584988921E1,1.612147522E-1,4.086502075E-1,9.896071014E0,9.905816812E0
1.585991921E1,1.552272034E-1,4.204756165E-1,9.859247589E0,9.869430493E0
1.586994921E1,1.375639343E-1,4.209246826E-1,9.823471985E0,9.833448188E0
1.587997821E1,1.375639343E-1,4.466711426E-1,9.829758911E0,9.840863742E0
1.589000821E1,1.465452576E-1,4.764591980E-1,9.825867004E0,9.838503508E0
1.590003721E1,1.450483704E-1,4.929249573E-1,9.834548950E0,9.847962586E0
1.591006721E1,1.528321838E-1,4.971162415E-1,9.841434631E0,9.855167063E0
1.592009621E1,1.516346741E-1,5.002597046E-1,9.854457550E0,9.868312239E0
1.593012621E1,1.480421448E-1,4.969665527E-1,9.859846344E0,9.873472649E0
1.594015621E1,1.487905884E-1,5.019062805E-1,9.862840118E0,9.876723331E0
1.595018521E1,1.721420288E-1,4.960684204E-1,9.869875488E0,9.883833209E0
1.596021521E1,1.531315613E-1,5.014572144E-1,9.910890198E0,9.924749525E0
1.597024421E1,1.227447510E-1,5.008584595E-1,9.914333038E0,9.927735143E0
1.598027421E1,1.513352966E-1,4.867877197E-1,9.860445099E0,9.873613432E0
1.599030321E1,1.853146362E-1,4.999603271E-1,9.803264008E0,9.817753666E0
1.600033321E1,1.865121460E-1,4.769082642E-1,9.812993774E0,9.826345968E0
1.601036321E1,1.740879822E-1,4.658312988E-1,9.815388794E0,9.827978561E0
1.602039221E1,1.414558411E-1,4.474195862E-1,9.792935486E0,9.804171534E0
1.603042221E1,1.399589539E-1,4.336482239E-1,9.790091400E0,9.800690226E0
1.604045121E1,1.511856079E-1,4.405339050E-1,9.823471985E0,9.834507057E0
1.605048121E1,1.589694214E-1,4.305047607E-1,9.872719574E0,9.883379858E0
1.606051021E1,1.573228455E-1,4.225712585E-1,9.897717590E0,9.907983167E0
1.607054021E1,1.537303162E-1,4.299060059E-1,9.899214478E0,9.909737608E0
1.608057021E1,1.634600830E-1,4.260140991E-1,9.882748718E0,9.893276982E0
1.609059921E1,1.797761536E-1,4.417314148E-1,9.840985565E0,9.852534852E0
1.610062921E1,1.678010559E-1,4.423301697E-1,9.839638367E0,9.851004840E0
1.611065821E1,1.682501221E-1,4.423301697E-1,9.833351440E0,9.844732837E0
1.612068821E1,1.567240906E-1,4.343966675E-1,9.827663269E0,9.838507419E0
1.613071721E1,1.537303162E-1,4.348457336E-1,9.808353424E0,9.819191449E0
1.614074721E1,1.535806274E-1,4.171824646E-1,9.830357666E0,9.840404466E0
1.615077621E1,1.478924561E-1,4.038601685E-1,9.863438873E0,9.872811232E0
1.616080621E1,1.546284485E-1,4.104464722E-1,9.866133270E0,9.875877782E0
1.617083621E1,1.480421448E-1,4.135899353E-1,9.855954437E0,9.865739252E0
1.618086521E1,1.627116394E-1,4.197271729E-1,9.864935760E0,9.875201443E0
1.619089521E1,1.594184875E-1,4.255650330E-1,9.839937744E0,9.850426116E0
1.620092421E1,1.507365417E-1,4.255650330E-1,9.825268250E0,9.835635377E0
1.621095421E1,1.387614441E-1,4.186793518E-1,9.830507355E0,9.840397451E0
1.622098321E1,1.434017944E-1,4.255650330E-1,9.828262024E0,9.838516356E0
1.623101321E1,1.429527283E-1,4.047583008E-1,9.841434631E0,9.850791865E0
1.624104321E1,1.606159973E-1,4.074526978E-1,9.866432648E0,9.876148459E0
1.625107221E1,1.685494995E-1,3.966751099E-1,9.902058563E0,9.911433996E0
1.626110221E1,1.543290710E-1,3.869453430E-1,9.893226929E0,9.901993901E0
1.627113121E1,1.574725342E-1,3.844006348E-1,9.870324554E0,9.879062114E0
1.628116121E1,1.480421448E-1,3.847000122E-1,9.824070740E0,9.832714604E0
1.629119121E1,1.549278259E-1,3.938310242E-1,9.843979340E0,9.853072351E0
1.630122021E1,1.624122620E-1,3.909869385E-1,9.838590546E0,9.847695794E0
1.631125021E1,1.624122620E-1,3.918850708E-1,9.850415955E0,9.859545939E0
1.632127921E1,1.622625732E-1,3.939807129E-1,9.862840118E0,9.872039564E0
1.633130921E1,1.721420288E-1,3.930825806E-1,9.856852570E0,9.866189202E0
1.634133821E1,1.817221069E-1,3.884422302E-1,9.847422180E0,9.856755748E0
1.635136821E1,1.567240906E-1,3.725752258E-1,9.852661285E0,9.860948694E0
1.636139721E1,1.550775146E-1,3.769161987E-1,9.870324554E0,9.878735833E0
1.637142721E1,1.502874756E-1,3.740721130E-1,9.852212219E0,9.860456474E0
1.638145721E1,1.531315613E-1,3.526666260E-1,9.817484436E0,9.825010111E0
1.639148621E1,1.457968140E-1,3.608995056E-1,9.827214203E0,9.834919631E0
1.640151621E1,1.306782532E-1,3.585044861E-1,9.871372375E0,9.878744599E0
1.641154521E1,1.595681763E-1,3.520678711E-1,9.880353699E0,9.887911964E0
1.642157521E1,1.546284485E-1,3.614982605E-1,9.874366150E0,9.882190942E0
1.643160521E1,1.330732727E-1,3.616479492E-1,9.840835876E0,9.848377962E0
1.644163421E1,1.359173584E-1,3.561094666E-1,9.786798248E0,9.794218061E0
1.645166421E1,1.231938171E-1,3.601510620E-1,9.775870972E0,9.783278528E0
1.646169321E1,1.324745178E-1,3.585044861E-1,9.843530273E0,9.850947325E0
1.647172321E1,1.366658020E-1,3.471281433E-1,9.882748718E0,9.889787547E0
1.648175221E1,1.272354126E-1,3.466790771E-1,9.896520081E0,9.903407744E0
1.649178221E1,1.561253357E-1,3.324586487E-1,9.859996033E0,9.866834631E0
1.650181221E1,1.836680603E-1,3.128494263E-1,9.748627625E0,9.755375404E0
1.651184121E1,1.987866211E-1,3.207829285E-1,9.756112061E0,9.763408234E0
1.652187121E1,1.703457642E-1,3.050656128E-1,9.801617432E0,9.807843136E0
1.653190021E1,1.303788757E-1,2.754272461E-1,9.835746460E0,9.840465804E0
1.654193021E1,1.163081360E-1,2.784210205E-1,9.844428406E0,9.849051552E0
1.655195921E1,9.415420532E-2,2.773731995E-1,9.826166382E0,9.830531352E0
1.656198921E1,1.077758789E-1,2.764750671E-1,9.829010468E0,9.833488744E0
1.657201921E1,1.365161133E-1,2.992277527E-1,9.905651093E0,9.911109800E0
1.658204821E1,1.380130005E-1,3.318598938E-1,9.965825958E0,9.972304930E0
1.659207821E1,1.264869690E-1,3.643423462E-1,9.952952728E0,9.960422296E0
1.660210721E1,1.344204712E-1,4.041595459E-1,9.858199768E0,9.867396641E0
1.661213721E1,1.426533508E-1,4.197271729E-1,9.788295135E0,9.798328558E0
1.662216667E1,1.582209778E-1,4.162843323E-1,9.777966614E0,9.788102861E0
1.663219667E1,1.803749084E-1,4.041595459E-1,9.803264008E0,9.813249474E0
1.664222667E1,1.910028076E-1,3.528163147E-1,9.858499146E0,9.866659355E0
1.665225567E1,2.103126526E-1,3.144960022E-1,9.896071014E0,9.903300494E0
1.666228567E1,2.020797729E-1,2.713856506E-1,9.918075256E0,9.923845182E0
1.667231467E1,1.836680603E-1,2.420466614E-1,9.911339264E0,9.915995489E0
1.668234467E1,1.799258423E-1,2.242337036E-1,9.897717590E0,9.901892120E0
1.669237367E1,1.715432739E-1,2.353106689E-1,9.899364166E0,9.903646253E0
1.670240367E1,1.574725342E-1,2.484832764E-1,9.865085449E0,9.869470728E0
1.671243367E1,1.435514832E-1,2.546205139E-1,9.859996033E0,9.864327671E0
1.672246267E1,1.369651794E-1,2.944377136E-1,9.830657043E0,9.836019059E0
