"Time (s)","Acceleration x (m/s^2)","Acceleration y (m/s^2)","Acceleration z (m/s^2)","Absolute acceleration (m/s^2)"
-1.951791637E-3,3.981719971E-2,-3.397933960E-1,9.492809601E0,9.498972528E0
8.080208325E-3,-1.513352966E-1,-3.603007507E-1,9.237740021E0,9.246002363E0
1.811120834E-2,-1.240919495E-1,-3.522175598E-1,9.137598267E0,9.145225973E0
2.814320836E-2,-1.378633118E-1,-3.635939026E-1,9.291029205E0,9.299162893E0
3.817420837E-2,-9.490264893E-2,-3.619473267E-1,9.611512756E0,9.618793575E0
4.820620833E-2,1.407073975E-2,-3.694317627E-1,9.930948486E0,9.937827512E0
5.823820835E-2,1.092727661E-1,-3.788621521E-1,1.012554382E1,1.013321838E1
6.826920836E-2,1.689985657E-1,-3.911366272E-1,1.016985168E1,1.017877358E1
7.830120833E-2,1.838177490E-1,-3.983216858E-1,1.006132736E1,1.007088663E1
8.833220834E-2,1.627116394E-1,-3.873944092E-1,9.914782104E0,9.923681458E0
9.836420836E-2,1.037342834E-1,-3.806584167E-1,9.785451050E0,9.793401548E0
1.083952084E-1,2.484832764E-2,-3.537144470E-1,9.690548401E0,9.697033549E0
1.184272083E-1,8.831634521E-3,-3.306623840E-1,9.682914276E0,9.688562561E0
1.284582083E-1,1.496887207E-4,-3.266207886E-1,9.717642059E0,9.723129556E0
1.384902084E-1,2.050735474E-2,-3.391946411E-1,9.804311829E0,9.810198978E0
1.485212083E-1,4.445755005E-2,-3.549119568E-1,9.881850586E0,9.888321899E0
1.585532083E-1,7.424560547E-2,-3.577560425E-1,9.926607513E0,9.933329679E0
1.685842084E-1,8.083190918E-2,-3.728746033E-1,9.909243622E0,9.916586027E0
1.786162083E-1,7.634124756E-2,-3.671864319E-1,9.882000275E0,9.889114384E0
1.886482083E-1,6.840774536E-2,-3.498225403E-1,9.851314087E0,9.857760632E0
1.986792083E-1,5.927673340E-2,-3.610491943E-1,9.842931519E0,9.849729495E0
2.087112084E-1,6.780899048E-2,-3.617976379E-1,9.860145721E0,9.867014201E0
2.187411250E-1,5.358856201E-2,-3.644920349E-1,9.841434631E0,9.848327867E0
2.287731250E-1,5.029541016E-2,-3.625460815E-1,9.819729767E0,9.826548834E0
2.388041250E-1,3.876937866E-2,-3.644920349E-1,9.817933502E0,9.824773573E0
2.488361250E-1,2.140548706E-2,-3.525169373E-1,9.841584320E0,9.847918984E0
2.588671250E-1,1.960922241E-2,-3.598516846E-1,9.890981598E0,9.897544884E0
2.688991250E-1,5.448669434E-2,-3.722758484E-1,9.933044128E0,9.940167190E0
2.789301250E-1,6.002517700E-2,-3.623963928E-1,9.875413971E0,9.882243433E0
2.889621250E-1,5.942642212E-2,-3.465293884E-1,9.824669495E0,9.830958488E0
2.989931250E-1,2.185455322E-2,-3.507206726E-1,9.866582336E0,9.872837972E0
3.090251250E-1,2.859054565E-2,-3.754193115E-1,9.906249847E0,9.913402197E0
3.190571250E-1,8.861572266E-2,-3.947291565E-1,9.819879456E0,9.828209215E0
3.290881250E-1,1.170565796E-1,-4.191284180E-1,9.764794006E0,9.774485811E0
3.391201250E-1,4.296066284E-2,-4.074526978E-1,9.777966614E0,9.786546603E0
3.491511250E-1,-9.729766846E-3,-3.974235535E-1,9.797426147E0,9.805488222E0
3.591831250E-1,9.131011963E-3,-4.129911804E-1,9.781708832E0,9.790427609E0
3.692141250E-1,-6.735992432E-3,-4.074526978E-1,9.826465759E0,9.834911916E0
3.792461250E-1,1.496887207E-4,-4.025129700E-1,9.861941986E0,9.870152808E0
3.892771250E-1,2.903961182E-2,-3.966751099E-1,9.872569885E0,9.880578454E0
3.993091250E-1,5.718109131E-2,-3.772155762E-1,9.854906616E0,9.862289069E0
4.093401250E-1,6.526428223E-2,-3.314108276E-1,9.800120544E0,9.805939794E0
4.193721250E-1,6.002517700E-2,-3.221301270E-1,9.772278442E0,9.777770543E0
4.294031250E-1,2.305206299E-2,-3.068618774E-1,9.775571594E0,9.780413877E0
4.394351250E-1,8.831634521E-3,-3.080593872E-1,9.800270233E0,9.805114748E0
4.494671250E-1,4.490661621E-4,-3.064128113E-1,9.860445099E0,9.865204841E0
4.594981250E-1,5.239105225E-3,-3.312611389E-1,9.910740509E0,9.916276460E0
4.695301250E-1,1.541793823E-2,-3.682342529E-1,9.942025452E0,9.948854419E0
4.795611250E-1,7.783813477E-3,-3.841012573E-1,9.946665802E0,9.954082325E0
4.895931250E-1,8.382568359E-3,-4.093986511E-1,9.907447357E0,9.915905942E0
4.996241250E-1,-8.232879639E-3,-4.182302856E-1,9.880802765E0,9.889653565E0
5.096561250E-1,-1.317260742E-2,-4.324507141E-1,9.849966888E0,9.859464227E0
5.196871250E-1,-1.212478638E-2,-4.403842163E-1,9.822274475E0,9.832149365E0
5.297191250E-1,-1.212478638E-2,-4.409829712E-1,9.799072723E0,9.808997871E0
5.397501250E-1,-1.077758789E-2,-4.475692749E-1,9.805958405E0,9.816173116E0
5.497821250E-1,-1.796264648E-3,-4.382885742E-1,9.839937744E0,9.849694153E0
5.598141250E-1,1.347198486E-2,-4.451742554E-1,9.863738251E0,9.873788224E0
5.698451250E-1,2.200424194E-2,-4.505630493E-1,9.906549225E0,9.916814448E0
5.798771250E-1,3.248245239E-2,-4.492158508E-1,9.951006775E0,9.961193996E0
5.899081250E-1,2.634521484E-2,-4.565505981E-1,9.948312378E0,9.958817786E0
5.999401250E-1,1.781295776E-2,-4.516108704E-1,9.837542725E0,9.847919401E0
6.099711250E-1,-6.586303711E-3,-4.390370178E-1,9.806706848E0,9.816531775E0
6.200031250E-1,-2.559677124E-2,-4.230203247E-1,9.910441132E0,9.919498214E0
6.300341250E-1,1.646575928E-3,-4.004173279E-1,9.838590546E0,9.846735534E0
6.400661250E-1,-2.634521484E-2,-3.845503235E-1,9.793833618E0,9.801415712E0
6.500971250E-1,-5.523513794E-2,-3.796105957E-1,9.776020660E0,9.783544096E0
6.601291250E-1,-4.984634399E-2,-3.784130859E-1,9.841135254E0,9.848534115E0
6.701601250E-1,-2.844085693E-2,-3.758683777E-1,9.872420197E0,9.879613680E0
6.801921250E-1,6.586303711E-3,-3.847000122E-1,9.877060547E0,9.884551711E0
6.902241250E-1,3.023712158E-2,-4.111949158E-1,9.919871521E0,9.928436258E0
7.002551250E-1,1.541793823E-2,-4.198768616E-1,9.949659576E0,9.958526998E0
7.102871250E-1,6.286926270E-3,-4.288581848E-1,9.949060822E0,9.958301567E0
7.203181250E-1,4.790039062E-3,-4.409829712E-1,9.900561676E0,9.910378924E0
7.303501250E-1,1.167572021E-2,-4.490661621E-1,9.864636383E0,9.874859377E0
7.403811250E-1,-6.286926270E-3,-4.441264343E-1,9.831405487E0,9.841433923E0
7.504131250E-1,-1.496887207E-2,-4.578977966E-1,9.823172607E0,9.833850443E0
7.604441250E-1,-1.751358032E-2,-4.632865906E-1,9.815239105E0,9.826182366E0
7.704761250E-1,-5.388793945E-3,-4.513114929E-1,9.844877472E0,9.855218087E0
7.805071250E-1,1.945953369E-3,-4.619393921E-1,9.858199768E0,9.869016894E0
7.905391250E-1,3.218307495E-2,-4.592449951E-1,9.838440857E0,9.849206070E0
8.005701250E-1,3.367996216E-2,-4.450245667E-1,9.840237122E0,9.850352675E0
8.106021250E-1,1.167572021E-2,-4.390370178E-1,9.829758911E0,9.839565543E0
8.206341250E-1,4.340972900E-3,-4.423301697E-1,9.818232880E0,9.828192698E0
8.306651250E-1,-1.945953369E-3,-4.312532043E-1,9.800270233E0,9.809754317E0
8.406971250E-1,-6.137237549E-3,-4.266128540E-1,9.816885681E0,9.826152893E0
8.507281250E-1,-5.987548828E-3,-4.174818420E-1,9.830956421E0,9.839818651E0
8.607601250E-1,1.646575928E-3,-4.173321533E-1,9.870474243E0,9.879293022E0
8.707911250E-1,1.332229614E-2,-4.150868225E-1,9.871372375E0,9.880104611E0
8.808231250E-1,2.844085693E-3,-4.203259277E-1,9.875413971E0,9.884355471E0
8.908541250E-1,-3.143463135E-3,-4.120930481E-1,9.854307861E0,9.862921169E0
9.008861250E-1,3.891906738E-3,-4.234693909E-1,9.864037628E0,9.873124116E0
9.109171250E-1,-1.571731567E-2,-4.168830872E-1,9.842931519E0,9.851768340E0
9.209491250E-1,-1.990859985E-2,-4.155358887E-1,9.848619690E0,9.857402103E0
9.309801250E-1,-1.691482544E-2,-4.164340210E-1,9.843530273E0,9.852349550E0
9.410121250E-1,-2.170486450E-2,-4.198768616E-1,9.845925293E0,9.854897897E0
9.510441250E-1,-1.047821045E-2,-4.092489624E-1,9.865684204E0,9.874174361E0
9.610751250E-1,-4.490661621E-3,-4.122427368E-1,9.875413971E0,9.884015648E0
9.711071250E-1,1.571731567E-2,-4.269122314E-1,9.877359924E0,9.886593962E0
9.811381250E-1,3.353027344E-2,-4.158352661E-1,9.874665527E0,9.883474213E0
9.911701250E-1,1.945953369E-2,-4.204756165E-1,9.865684204E0,9.874659651E0
1.001201125E0,3.397933960E-2,-4.204756165E-1,9.856253815E0,9.865277168E0
1.011233125E0,1.422042847E-2,-4.331991577E-1,9.829160156E0,9.838711964E0
1.021264125E0,1.751358032E-2,-4.266128540E-1,9.835596771E0,9.844860035E0
1.031296125E0,2.888992310E-2,-4.388873291E-1,9.876761169E0,9.886549849E0
1.041327125E0,3.008743286E-2,-4.505630493E-1,9.887389069E0,9.897695434E0
1.051359125E0,1.721420288E-2,-4.269122314E-1,9.837991791E0,9.847265248E0
1.061391125E0,1.856140137E-2,-4.119433594E-1,9.782756653E0,9.791443693E0
1.071422125E0,4.939727783E-3,-4.083508301E-1,9.776020660E0,9.784546732E0
1.081454125E0,-2.993774414E-2,-4.188290405E-1,9.848020935E0,9.856968620E0
1.091485125E0,-2.215393066E-2,-4.164340210E-1,9.896969147E0,9.905751177E0
1.101517125E0,1.916015625E-2,-3.929328918E-1,9.883946228E0,9.891772157E0
1.111548125E0,3.397933960E-2,-4.043092346E-1,9.839788055E0,9.848149548E0
1.121580125E0,4.490661621E-4,-3.959266663E-1,9.884544983E0,9.892471261E0
1.131611125E0,1.047821045E-3,-4.032614136E-1,9.970166931E0,9.978318972E0
1.141643125E0,5.538482666E-2,-4.239184570E-1,9.905800781E0,9.915022111E0
1.151674125E0,8.352630615E-2,-4.141886902E-1,9.753717041E0,9.762864591E0
1.161706125E0,1.631607056E-2,-4.126918030E-1,9.717492371E0,9.726265404E0
1.171737125E0,-4.670288086E-2,-3.969744873E-1,9.763596497E0,9.771774990E0
1.181769125E0,-4.415817261E-2,-4.087998962E-1,9.764195251E0,9.772848930E0
1.191800125E0,6.586303711E-3,-4.152365112E-1,9.797126770E0,9.805924622E0
1.201832125E0,1.586700439E-2,-4.370910645E-1,9.857750702E0,9.867448974E0
1.211864125E0,2.694396973E-2,-4.207749939E-1,9.904752960E0,9.913723255E0
1.221896083E0,5.014572144E-2,-4.206253052E-1,9.921817474E0,9.930856068E0
1.231928083E0,5.224136353E-2,-4.182302856E-1,9.899813232E0,9.908781346E0
1.241959083E0,3.397933960E-2,-3.984713745E-1,9.842931519E0,9.851052477E0
1.251991083E0,-1.511856079E-2,-3.935316467E-1,9.812544708E0,9.820444459E0
1.262022083E0,-3.652404785E-2,-3.640429688E-1,9.811796265E0,9.818615342E0
1.272054083E0,-4.505630493E-2,-3.544628906E-1,9.831405487E0,9.837896516E0
1.282085083E0,-5.313949585E-2,-3.546125793E-1,9.856852570E0,9.863372469E0
1.292117083E0,-3.203338623E-2,-3.481759644E-1,9.905651093E0,9.911820025E0
1.302148083E0,-1.137634277E-2,-3.568579102E-1,9.920320587E0,9.926743552E0
1.312180083E0,-1.362167358E-2,-3.698808289E-1,9.917027435E0,9.923932211E0
1.322211083E0,-4.939727783E-3,-3.781137085E-1,9.900561676E0,9.907780573E0
1.332243083E0,2.694396973E-3,-3.628454590E-1,9.879605255E0,9.886266438E0
1.342275083E0,8.681945801E-3,-3.909869385E-1,9.844727783E0,9.852492643E0
1.352306083E0,2.020797729E-2,-3.899391174E-1,9.847422180E0,9.855160297E0
1.362338083E0,2.065704346E-2,-3.992198181E-1,9.827812958E0,9.835939747E0
1.372369083E0,3.353027344E-2,-4.099974060E-1,9.820777588E0,9.829389329E0
1.382401083E0,4.116439819E-2,-4.171824646E-1,9.838889923E0,9.847816542E0
1.392432083E0,4.011657715E-2,-4.269122314E-1,9.862540741E0,9.871857640E0
1.402464083E0,3.457809448E-2,-4.212240601E-1,9.898765411E0,9.907783911E0
1.412495083E0,4.445755005E-2,-4.116439819E-1,9.911488953E0,9.920133089E0
1.422527083E0,4.909790039E-2,-3.987707520E-1,9.898166656E0,9.906317776E0
1.432558083E0,2.724334717E-2,-3.772155762E-1,9.797875214E0,9.805171722E0
1.442590083E0,8.232879639E-3,-3.632945251E-1,9.767638092E0,9.774395357E0
1.452621083E0,-1.362167358E-2,-3.471281433E-1,9.868677979E0,9.874790557E0
1.462653083E0,-1.451980591E-2,-3.351530457E-1,9.771679688E0,9.777436387E0
1.472685083E0,-3.263214111E-2,-3.218307495E-1,9.742789764E0,9.748158405E0
1.482716083E0,-5.972579956E-2,-3.291654968E-1,9.833351440E0,9.839040484E0
1.492748083E0,-2.200424194E-2,-3.335064697E-1,9.867929535E0,9.873588206E0
1.502779083E0,2.514770508E-2,-3.421884155E-1,9.862091675E0,9.868058447E0
1.512811083E0,4.370910645E-2,-3.526666260E-1,9.853409729E0,9.859815796E0
1.522842083E0,1.571731567E-2,-3.668870544E-1,9.884694672E0,9.891513630E0
1.532874083E0,1.002914429E-2,-3.800596619E-1,9.903405762E0,9.910700864E0
1.542905083E0,2.275268555E-2,-3.902384949E-1,9.912985840E0,9.920690098E0
1.552937083E0,2.020797729E-2,-3.927832031E-1,9.887987823E0,9.895806698E0
1.562968083E0,1.526824951E-2,-4.093986511E-1,9.876162415E0,9.884656009E0
1.573000083E0,1.691482544E-2,-3.870950317E-1,9.866732025E0,9.874336916E0
1.583031083E0,1.451980591E-2,-3.893403625E-1,9.843679962E0,9.851387310E0
1.593063083E0,1.317260742E-2,-3.899391174E-1,9.834698639E0,9.842434828E0
1.603095083E0,1.631607056E-2,-3.838018799E-1,9.845027161E0,9.852518962E0
1.613126083E0,4.266128540E-2,-3.900888062E-1,9.849966888E0,9.857780529E0
1.623158083E0,4.805007935E-2,-3.734733582E-1,9.850565643E0,9.857760124E0
1.633189083E0,6.556365967E-2,-3.591032410E-1,9.845176849E0,9.851941988E0
1.643221083E0,5.388793945E-2,-3.704795837E-1,9.850116577E0,9.857228597E0
1.653252083E0,4.251159668E-2,-3.775149536E-1,9.823322296E0,9.830665578E0
1.663284083E0,2.709365845E-2,-3.538641357E-1,9.820328522E0,9.826739346E0
1.673315083E0,8.981323242E-3,-3.754193115E-1,9.822723541E0,9.829899190E0
1.683347083E0,1.541793823E-2,-3.827540588E-1,9.835297394E0,9.842754351E0
1.693378083E0,1.751358032E-2,-3.784130859E-1,9.847571869E0,9.854855397E0
1.703410083E0,3.592529297E-2,-3.550616455E-1,9.864337006E0,9.870790442E0
1.713441083E0,1.766326904E-2,-3.611988831E-1,9.877060547E0,9.883678550E0
1.723473083E0,1.766326904E-2,-3.555107117E-1,9.864037628E0,9.870457851E0
1.733505083E0,9.879455566E-3,-3.730242920E-1,9.859397278E0,9.866456274E0
1.743536083E0,-2.993774414E-3,-3.797602844E-1,9.865534515E0,9.872841441E0
1.753568083E0,1.047821045E-3,-3.766168213E-1,9.863139496E0,9.870327352E0
1.763599083E0,2.095642090E-3,-3.698808289E-1,9.839788055E0,9.846737795E0
1.773631083E0,-2.095642090E-3,-3.827540588E-1,9.846524048E0,9.853960670E0
1.783662083E0,2.529739380E-2,-3.818559265E-1,9.851763153E0,9.859193229E0
1.793694083E0,1.437011719E-2,-3.788621521E-1,9.860594788E0,9.867880856E0
1.803725083E0,2.155517578E-2,-3.823049927E-1,9.869127045E0,9.876552554E0
1.813757083E0,4.056564331E-2,-3.854484558E-1,9.862540741E0,9.870153289E0
1.823788083E0,4.745132446E-2,-3.917353821E-1,9.869875488E0,9.877760394E0
1.833820083E0,4.191284180E-2,-3.941304016E-1,9.861043854E0,9.869006097E0
1.843851083E0,5.014572144E-2,-3.996688843E-1,9.855804749E0,9.864032494E0
1.853883083E0,5.583389282E-2,-3.984713745E-1,9.847122803E0,9.855339890E0
1.863915083E0,4.251159668E-2,-3.791615295E-1,9.843380585E0,9.850772154E0
1.873946083E0,1.960922241E-2,-3.841012573E-1,9.812844086E0,9.820378167E0
1.883978083E0,8.382568359E-3,-3.873944092E-1,9.821376343E0,9.829017141E0
1.894009083E0,1.197509766E-2,-3.800596619E-1,9.888287201E0,9.895595612E0
1.904041083E0,1.182540894E-2,-3.785627747E-1,9.910441132E0,9.917675788E0
1.914072083E0,3.008743286E-2,-3.638932800E-1,9.865235138E0,9.871990068E0
1.924104083E0,2.380050659E-2,-3.391946411E-1,9.802814941E0,9.808710427E0
1.934135083E0,-1.960922241E-2,-3.376977539E-1,9.787846069E0,9.793689548E0
1.944167083E0,-3.787124634E-2,-3.460803223E-1,9.821975098E0,9.828143296E0
1.954198083E0,-3.966751099E-2,-3.529660034E-1,9.882299652E0,9.888680646E0
1.964230083E0,8.681945801E-3,-3.793112183E-1,9.880653076E0,9.887934951E0
1.974261083E0,2.844085693E-2,-3.731739807E-1,9.826465759E0,9.833590241E0
1.984293083E0,6.137237549E-3,-3.725752258E-1,9.873018951E0,9.880048238E0
1.994325083E0,3.592529297E-3,-3.842509460E-1,9.952503662E0,9.959919219E0
2.004356083E0,2.739303589E-2,-3.974235535E-1,9.962083740E0,9.970045552E0
2.014388083E0,8.442443848E-2,-3.941304016E-1,9.852810974E0,9.861052193E0
2.024419083E0,5.104385376E-2,-4.068539429E-1,9.780211945E0,9.788803874E0
2.034451083E0,-1.930984497E-2,-3.838018799E-1,9.742640076E0,9.750216018E0
2.044482083E0,-3.832031250E-2,-3.836521912E-1,9.757309570E0,9.764924347E0
2.054514083E0,-1.047821045E-3,-3.965254211E-1,9.760003967E0,9.768055638E0
2.064545083E0,1.377136230E-2,-4.050576782E-1,9.813293152E0,9.821658916E0
2.074577083E0,5.269042969E-2,-3.884422302E-1,9.896370392E0,9.904130986E0
2.084608083E0,7.274871826E-2,-4.144880676E-1,9.929152222E0,9.938066038E0
2.094640083E0,8.487350464E-2,-3.999682617E-1,9.956994324E0,9.965385797E0
2.104671083E0,6.122268677E-2,-3.974235535E-1,9.932445374E0,9.940581713E0
2.114703083E0,-2.993774414E-4,-3.959266663E-1,9.870324554E0,9.878262237E0
2.124734083E0,-2.754272461E-2,-3.829037476E-1,9.836644592E0,9.844132807E0
2.134766083E0,-4.879852295E-2,-3.620970154E-1,9.814041595E0,9.820840493E0
2.144798083E0,-5.538482666E-2,-3.390449524E-1,9.838889923E0,9.844885671E0
2.154829083E0,-4.041595459E-2,-3.519181824E-1,9.887538757E0,9.893882076E0
2.164861083E0,-2.469863892E-2,-3.315605164E-1,9.905800781E0,9.911378891E0
2.174892083E0,-1.481918335E-2,-3.537144470E-1,9.942324829E0,9.948625861E0
2.184924083E0,-5.239105225E-3,-3.704795837E-1,9.948162689E0,9.955060194E0
2.194955083E0,5.388793945E-3,-3.845503235E-1,9.923014984E0,9.930464962E0
2.204987083E0,1.227447510E-2,-4.085005188E-1,9.900711365E0,9.909142691E0
2.215018083E0,1.466949463E-2,-4.186793518E-1,9.849517822E0,9.858423247E0
2.225049958E0,-1.496887207E-4,-4.192781067E-1,9.834249573E0,9.843183368E0
2.235080958E0,2.844085693E-3,-4.320016479E-1,9.827363892E0,9.836854913E0
2.245112958E0,2.275268555E-2,-4.414320374E-1,9.834099884E0,9.844028670E0
2.255143958E0,2.634521484E-2,-4.397854614E-1,9.882898407E0,9.892713796E0
2.265175958E0,2.095642090E-2,-4.463717651E-1,9.911039886E0,9.921108736E0
2.275207958E0,4.296066284E-2,-4.234693909E-1,9.929900665E0,9.939019024E0
2.285238958E0,3.622467041E-2,-4.131408691E-1,9.946067047E0,9.954709805E0
2.295270958E0,3.278182983E-2,-4.195774841E-1,9.904453583E0,9.913390978E0
2.305301958E0,2.050735474E-2,-3.879931641E-1,9.802066498E0,9.809763854E0
2.315333958E0,-1.257385254E-2,-3.701802063E-1,9.881551208E0,9.888490571E0
2.325364958E0,-1.661544800E-2,-3.541635132E-1,9.825268250E0,9.831663341E0
2.335396958E0,-2.215393066E-2,-3.475772095E-1,9.759255524E0,9.765468196E0
2.345427958E0,-5.418731689E-2,-3.317102051E-1,9.822274475E0,9.828023392E0
2.355459958E0,-2.140548706E-2,-3.516188049E-1,9.857151947E0,9.863444555E0
2.365490958E0,4.760101318E-2,-3.586541748E-1,9.859546967E0,9.866182902E0
2.375522958E0,4.954696655E-2,-3.510200500E-1,9.877210236E0,9.883569801E0
2.385553958E0,3.158432007E-2,-3.677851868E-1,9.877659302E0,9.884554456E0
2.395585958E0,2.829116821E-2,-3.882925415E-1,9.852361908E0,9.860051047E0
2.405616958E0,3.457809448E-2,-3.912863159E-1,9.860894165E0,9.868714930E0
2.415648958E0,3.248245239E-2,-3.929328918E-1,9.858050079E0,9.865931417E0
2.425680958E0,4.954696655E-2,-3.969744873E-1,9.859846344E0,9.867958937E0
2.435711958E0,5.748046875E-2,-3.936813354E-1,9.864786072E0,9.872805743E0
2.445743958E0,6.436614990E-2,-3.945794678E-1,9.876761169E0,9.884849374E0
2.455774958E0,6.586303711E-2,-3.966751099E-1,9.860894165E0,9.869089260E0
2.465806958E0,6.855743408E-2,-3.948788452E-1,9.857151947E0,9.865296444E0
2.475837958E0,7.574249268E-2,-3.887416077E-1,9.861193542E0,9.869143582E0
2.485869958E0,7.364685059E-2,-3.806584167E-1,9.874366150E0,9.881975084E0
2.495900958E0,6.062393188E-2,-3.746708679E-1,9.868528290E0,9.875824225E0
2.505932958E0,5.748046875E-2,-3.528163147E-1,9.853858795E0,9.860340588E0
2.515963958E0,3.981719971E-2,-3.640429688E-1,9.826914825E0,9.833736201E0
2.525995958E0,3.263214111E-2,-3.603007507E-1,9.821226654E0,9.827887590E0
2.536026958E0,1.901046753E-2,-3.665876770E-1,9.824819183E0,9.831674319E0
2.546058958E0,2.724334717E-2,-3.734733582E-1,9.820178833E0,9.827315852E0
2.556090958E0,3.457809448E-2,-3.867956543E-1,9.834099884E0,9.841764428E0
2.566121958E0,3.218307495E-2,-3.823049927E-1,9.842781830E0,9.850256190E0
2.576153958E0,2.918930054E-2,-3.727249146E-1,9.840386810E0,9.847486403E0
2.586184958E0,5.164260864E-2,-3.773652649E-1,9.863438873E0,9.870790136E0
2.596216958E0,4.790039063E-2,-3.957769775E-1,9.858499146E0,9.866556606E0
2.606247958E0,4.176315308E-2,-3.818559265E-1,9.854607239E0,9.862091155E0
2.616279958E0,5.239105225E-2,-3.947291565E-1,9.862241364E0,9.870276624E0
2.626310958E0,5.373825073E-2,-3.737727356E-1,9.869276733E0,9.876498220E0
2.636342958E0,3.233276367E-2,-3.830534363E-1,9.877659302E0,9.885136753E0
2.646373958E0,4.460723877E-2,-3.707789612E-1,9.858948212E0,9.866018786E0
2.656405958E0,4.864883423E-2,-3.727249146E-1,9.847272491E0,9.854443977E0
2.666436958E0,5.254074097E-2,-3.637435913E-1,9.841883698E0,9.848743303E0
2.676468958E0,6.406677246E-2,-3.597019958E-1,9.849667511E0,9.856441556E0
2.686500958E0,7.948471069E-2,-3.725752258E-1,9.849368134E0,9.856732864E0
2.696531958E0,8.876541138E-2,-3.568579102E-1,9.852212219E0,9.859072597E0
2.706563958E0,9.924362183E-2,-3.728746033E-1,9.850865021E0,9.858419063E0
2.716594958E0,9.415420532E-2,-3.680845642E-1,9.839338989E0,9.846671671E0
2.726626958E0,9.011260986E-2,-3.691323853E-1,9.849817200E0,9.857143494E0
2.736657958E0,8.771759033E-2,-3.790118408E-1,9.847122803E0,9.854804506E0
2.746689958E0,8.876541138E-2,-3.845503235E-1,9.847571869E0,9.855477156E0
2.756720958E0,8.113128662E-2,-3.873944092E-1,9.889484711E0,9.897401909E0
2.766752958E0,1.097218323E-1,-3.760180664E-1,9.894424438E0,9.902174682E0
2.776783958E0,8.906478882E-2,-3.814068604E-1,9.847571869E0,9.855357702E0
2.786815958E0,7.918533325E-2,-3.546125793E-1,9.833650818E0,9.840361213E0
2.796846958E0,6.541397095E-2,-3.601510620E-1,9.833501129E0,9.840311592E0
2.806878958E0,4.311035156E-2,-3.493734741E-1,9.861043854E0,9.867325180E0
2.816910958E0,5.224136353E-2,-3.528163147E-1,9.876162415E0,9.882600495E0
2.826941958E0,6.301895142E-2,-3.387455750E-1,9.868228912E0,9.874242342E0
2.836973958E0,6.406677246E-2,-3.248245239E-1,9.845775604E0,9.851340659E0
2.847004958E0,5.658233643E-2,-3.478765869E-1,9.846224670E0,9.852530636E0
2.857036958E0,4.864883423E-2,-3.656895447E-1,9.906549225E0,9.913415814E0
2.867067958E0,8.337661743E-2,-3.647914124E-1,9.884994049E0,9.892074190E0
2.877099958E0,1.351689148E-1,-3.956272888E-1,9.827812958E0,9.836701638E0
2.887130958E0,1.071771240E-1,-4.017645264E-1,9.788893890E0,9.797721432E0
2.897162958E0,5.867797852E-2,-4.004173279E-1,9.784702606E0,9.793068070E0
2.907193958E0,2.335144043E-2,-3.909869385E-1,9.755213928E0,9.763074048E0
2.917225958E0,3.742218018E-2,-3.911366272E-1,9.786199493E0,9.794084378E0
2.927256958E0,5.703140259E-2,-3.990701294E-1,9.847122803E0,9.855370974E0
2.937288958E0,8.053253174E-2,-3.914360046E-1,9.873018951E0,9.881103726E0
2.947319958E0,9.864486694E-2,-3.761677551E-1,9.886940002E0,9.894585166E0
2.957351958E0,1.100212097E-1,-3.414399719E-1,9.853260040E0,9.859787997E0
2.967383958E0,9.340576172E-2,-3.188369751E-1,9.813442841E0,9.819065232E0
2.977414958E0,8.262817383E-2,-2.996768188E-1,9.805659027E0,9.810585231E0
2.987446958E0,6.436614990E-2,-2.927911377E-1,9.794432373E0,9.799019092E0
2.997477958E0,4.490661621E-2,-2.784210205E-1,9.828561401E0,9.832606678E0
3.007509958E0,3.562591553E-2,-2.947370911E-1,9.884095917E0,9.888553547E0
3.017540958E0,4.685256958E-2,-3.094065857E-1,9.927954712E0,9.932885400E0
3.027572958E0,5.912704468E-2,-3.176394653E-1,9.944420471E0,9.949667801E0
3.037603958E0,7.394622803E-2,-3.445834351E-1,9.925110626E0,9.931365804E0
3.047635958E0,6.616241455E-2,-3.583547974E-1,9.882000275E0,9.888717058E0
3.057666958E0,6.496490479E-2,-3.683839417E-1,9.864486694E0,9.871576617E0
3.067698958E0,5.628295898E-2,-3.808081055E-1,9.844727783E0,9.852250896E0
3.077729958E0,5.942642212E-2,-3.948788452E-1,9.832602997E0,9.840708435E0
3.087761958E0,7.679031372E-2,-3.866459656E-1,9.828112335E0,9.836014636E0
3.097793958E0,8.726852417E-2,-4.071533203E-1,9.824220428E0,9.833041068E0
3.107824958E0,9.535171509E-2,-4.002676392E-1,9.837243347E0,9.845844951E0
3.117856958E0,1.016386414E-1,-3.996688843E-1,9.860744476E0,9.869364076E0
3.127887958E0,8.981323242E-2,-3.915856934E-1,9.878856812E0,9.887022690E0
3.137919958E0,7.394622803E-2,-3.893403625E-1,9.892927551E0,9.900862058E0
3.147950958E0,7.020401001E-2,-3.805087280E-1,9.810748444E0,9.818375656E0
3.157982958E0,6.212081909E-2,-3.604504395E-1,9.794582062E0,9.801409148E0
3.168013958E0,5.553451538E-2,-3.356021118E-1,9.881102142E0,9.886955669E0
3.178045958E0,6.256988525E-2,-3.159928894E-1,9.808203735E0,9.813492091E0
3.188076958E0,4.221221924E-2,-2.962339783E-1,9.804760895E0,9.809325800E0
3.198108958E0,1.691482544E-2,-3.097059631E-1,9.800868988E0,9.805775687E0
3.208139958E0,5.807922363E-2,-3.065625000E-1,9.824968872E0,9.829922029E0
3.218171958E0,6.960525513E-2,-3.103047180E-1,9.868228912E0,9.873351800E0
3.228202500E0,8.741821289E-2,-3.219804382E-1,9.886640625E0,9.892268506E0
3.238234500E0,8.502319336E-2,-3.493734741E-1,9.898615723E0,9.905144320E0
3.248266500E0,8.666976929E-2,-3.631448364E-1,9.900711365E0,9.907748046E0
3.258297500E0,9.160949707E-2,-3.776646423E-1,9.891730042E0,9.899360893E0
3.268329500E0,9.235794067E-2,-3.879931641E-1,9.859546967E0,9.867610403E0
3.278360500E0,9.445358276E-2,-3.776646423E-1,9.842931519E0,9.850627033E0
3.288392500E0,9.340576172E-2,-3.788621521E-1,9.832303619E0,9.840043477E0
3.298423500E0,9.445358276E-2,-3.785627747E-1,9.815688171E0,9.823439598E0
3.308455500E0,8.457412720E-2,-3.836521912E-1,9.805958405E0,9.813825045E0
3.318486500E0,8.442443848E-2,-3.739224243E-1,9.829160156E0,9.836632292E0
3.328518500E0,9.924362183E-2,-3.562591553E-1,9.850865021E0,9.857804600E0
3.338549500E0,1.149609375E-1,-3.665876770E-1,9.866582336E0,9.874059426E0
3.348581500E0,1.032852173E-1,-3.591032410E-1,9.847122803E0,9.854209784E0
3.358612500E0,9.400451660E-2,-3.537144470E-1,9.819131012E0,9.825949552E0
3.368644500E0,7.514373779E-2,-3.573069763E-1,9.830507355E0,9.837285688E0
3.378676500E0,6.212081909E-2,-3.646417236E-1,9.821526031E0,9.828489007E0
3.388707500E0,5.269042969E-2,-3.519181824E-1,9.814340973E0,9.820789755E0
3.398739500E0,5.254074097E-2,-3.430865479E-1,9.812245331E0,9.818382114E0
3.408770500E0,6.361770630E-2,-3.535647583E-1,9.841734009E0,9.848288356E0
3.418802500E0,7.993377686E-2,-3.438349915E-1,9.853709106E0,9.860030176E0
3.428833500E0,7.649093628E-2,-3.420387268E-1,9.855954437E0,9.862184303E0
3.438865500E0,7.589218140E-2,-3.469784546E-1,9.845027161E0,9.851432051E0
3.448896500E0,7.274871826E-2,-3.391946411E-1,9.833052063E0,9.839169592E0
3.458928500E0,6.197113037E-2,-3.489244080E-1,9.810598755E0,9.816997331E0
3.468959500E0,5.343887329E-2,-3.460803223E-1,9.822274475E0,9.828514800E0
3.478991500E0,5.748046875E-2,-3.429368591E-1,9.840686188E0,9.846827628E0
3.489022500E0,6.960525513E-2,-3.504212952E-1,9.846973114E0,9.853452161E0
3.499054500E0,6.676116943E-2,-3.546125793E-1,9.842482452E0,9.849094779E0
3.509085500E0,7.259902954E-2,-3.564088440E-1,9.852810974E0,9.859522401E0
3.519117500E0,7.619155884E-2,-3.617976379E-1,9.842632141E0,9.849574110E0
3.529149500E0,8.217910767E-2,-3.665876770E-1,9.855205994E0,9.862364073E0
3.539180500E0,7.723937988E-2,-3.787124634E-1,9.868977356E0,9.876543075E0
3.549212500E0,9.624984741E-2,-3.679348755E-1,9.852062531E0,9.859400398E0
3.559243500E0,9.565109253E-2,-3.745211792E-1,9.849517822E0,9.857099806E0
3.569275500E0,9.160949707E-2,-3.719764709E-1,9.835596771E0,9.843054538E0
3.579306500E0,7.364685059E-2,-3.706292725E-1,9.837093658E0,9.844348712E0
3.589338500E0,6.810836792E-2,-3.791615295E-1,9.843530273E0,9.851065448E0
3.599369500E0,7.888595581E-2,-3.836521912E-1,9.885143738E0,9.892900420E0
3.609401500E0,7.379653931E-2,-3.691323853E-1,9.893975372E0,9.901133941E0
3.619432500E0,6.526428223E-2,-3.432362366E-1,9.842482452E0,9.848681707E0
3.629464500E0,4.670288086E-2,-3.233276367E-1,9.798324280E0,9.803768694E0
3.639495500E0,2.215393066E-2,-3.312611389E-1,9.788744202E0,9.794372761E0
3.649527500E0,1.646575928E-3,-3.338058472E-1,9.803713074E0,9.809394430E0
3.659559500E0,1.212478638E-2,-3.330574036E-1,9.851314087E0,9.856950009E0
3.669590500E0,3.697311401E-2,-3.466790771E-1,9.836494904E0,9.842671659E0
3.679622500E0,2.380050659E-2,-3.427871704E-1,9.820328522E0,9.826338168E0
3.689653500E0,3.457809448E-2,-3.680845642E-1,9.880653076E0,9.887567300E0
3.699685500E0,3.592529297E-2,-3.969744873E-1,9.935139771E0,9.943132385E0
3.709716500E0,7.828720093E-2,-4.162843323E-1,9.859247589E0,9.868342543E0
3.719748500E0,1.023870850E-1,-4.149371338E-1,9.773625641E0,9.782965507E0
3.729779500E0,3.772155762E-2,-4.358935547E-1,9.764045563E0,9.773843249E0
3.739811500E0,-1.975891113E-2,-4.300556946E-1,9.800868988E0,9.810319630E0
3.749842500E0,-1.002914429E-2,-4.282594299E-1,9.814191284E0,9.823535885E0
3.759874500E0,1.392105103E-2,-4.450245667E-1,9.828411713E0,9.838491625E0
3.769905500E0,3.847000122E-2,-4.447251892E-1,9.902357941E0,9.912414096E0
3.779937500E0,4.460723877E-2,-4.471202087E-1,9.926607513E0,9.936772263E0
3.789968500E0,6.376739502E-2,-4.162843323E-1,9.937534790E0,9.946454475E0
3.800000500E0,7.903564453E-2,-3.863465881E-1,9.902657318E0,9.910506157E0
3.810032500E0,4.909790039E-2,-3.585044861E-1,9.815538483E0,9.822206054E0
3.820063500E0,1.886077881E-2,-3.399430847E-1,9.760453033E0,9.766389325E0
3.830095500E0,-1.841171265E-2,-3.197351074E-1,9.772278442E0,9.777525018E0
3.840126500E0,-2.424957275E-2,-2.924917603E-1,9.821226654E0,9.825611048E0
3.850158500E0,-9.729766846E-3,-3.005749512E-1,9.875713348E0,9.880291196E0
3.860189500E0,-7.933502197E-3,-3.270698547E-1,9.940678253E0,9.946060615E0
3.870221500E0,1.287322998E-2,-3.520678711E-1,9.966873779E0,9.973098337E0
3.880252500E0,2.005828857E-2,-3.854484558E-1,9.954150238E0,9.961630379E0
3.890284500E0,2.993774414E-2,-4.058061218E-1,9.899962921E0,9.908321791E0
3.900315500E0,1.945953369E-2,-4.207749939E-1,9.863738251E0,9.872728222E0
3.910347500E0,1.032852173E-2,-4.430786133E-1,9.839788055E0,9.849764175E0
3.920378500E0,1.676513672E-2,-4.641847229E-1,9.818681946E0,9.829662440E0
3.930410500E0,1.796264648E-3,-4.658312988E-1,9.818981323E0,9.830025242E0
3.940442500E0,1.332229614E-2,-4.718188477E-1,9.814640350E0,9.825983702E0
3.950473500E0,3.397933960E-2,-4.653822327E-1,9.846973114E0,9.858022861E0
3.960505500E0,3.577560425E-2,-4.590953064E-1,9.859546967E0,9.870294564E0
3.970536500E0,3.248245239E-2,-4.555027771E-1,9.876162415E0,9.886714415E0
3.980568500E0,2.709365845E-2,-4.496649170E-1,9.914183350E0,9.924412531E0
3.990599500E0,1.257385254E-2,-4.372407532E-1,9.875264282E0,9.884947254E0
4.000631500E0,6.436614990E-3,-4.167333984E-1,9.738149414E0,9.747064284E0
4.010662500E0,-1.601669312E-2,-3.806584167E-1,9.790690155E0,9.798100381E0
4.020694500E0,-1.107696533E-2,-3.703298950E-1,9.890682220E0,9.897618992E0
4.030725500E0,-1.197509766E-3,-3.459306335E-1,9.800419922E0,9.806523343E0
4.040757500E0,-2.769241333E-2,-3.115022278E-1,9.764494629E0,9.769501311E0
4.050788500E0,-4.251159668E-2,-3.258723450E-1,9.828711090E0,9.834203664E0
4.060820500E0,-1.661544800E-2,-3.514691162E-1,9.882898407E0,9.889160103E0
4.070851500E0,2.065704346E-2,-3.719764709E-1,9.895621948E0,9.902632324E0
4.080883500E0,3.832031250E-2,-3.909869385E-1,9.886640625E0,9.894442990E0
4.090915500E0,3.008743286E-2,-4.171824646E-1,9.939480743E0,9.948277434E0
4.100946500E0,1.107696533E-2,-4.348457336E-1,9.965077515E0,9.974566827E0
4.110978500E0,2.350112915E-2,-4.622387695E-1,9.936486969E0,9.947260440E0
4.121009500E0,3.218307495E-2,-4.683760071E-1,9.898466034E0,9.909593415E0
4.131041500E0,2.215393066E-2,-4.616400146E-1,9.865235138E0,9.876055216E0
4.141072500E0,2.215393066E-2,-4.640350342E-1,9.863139496E0,9.874074135E0
4.151104500E0,3.218307495E-2,-4.640350342E-1,9.834998016E0,9.845991583E0
4.161135500E0,2.918930054E-2,-4.505630493E-1,9.817783813E0,9.828160463E0
4.171167500E0,3.562591553E-2,-4.406835938E-1,9.835746460E0,9.845678222E0
4.181198500E0,4.700225830E-2,-4.339476013E-1,9.844428406E0,9.854100181E0
4.191230500E0,6.122268677E-2,-4.251159668E-1,9.836345215E0,9.845717800E0
4.201261500E0,5.613327026E-2,-4.212240601E-1,9.822873230E0,9.832060778E0
4.211293500E0,4.281097412E-2,-4.122427368E-1,9.815089417E0,9.823836171E0
4.221324500E0,3.098556519E-2,-4.035607910E-1,9.801018677E0,9.809372483E0
4.231356125E0,7.933502197E-3,-4.002676392E-1,9.800569611E0,9.808743131E0
4.241388125E0,1.496887207E-4,-3.983216858E-1,9.809850311E0,9.817933760E0
4.251419125E0,5.987548828E-3,-4.065545654E-1,9.844727783E0,9.853120703E0
4.261451125E0,2.140548706E-2,-4.090992737E-1,9.872719574E0,9.881215117E0
4.271482125E0,2.499801636E-2,-4.050576782E-1,9.883497162E0,9.891825553E0
4.281514125E0,2.799179077E-2,-4.141886902E-1,9.873318329E0,9.882041825E0
4.291545125E0,2.140548706E-2,-4.197271729E-1,9.873018951E0,9.881959943E0
4.301577125E0,1.691482544E-2,-4.183799744E-1,9.861193542E0,9.870079331E0
4.311608125E0,2.993774414E-3,-4.260140991E-1,9.844578094E0,9.853791901E0
4.321640125E0,-2.245330811E-3,-4.165837097E-1,9.841883698E0,9.850696511E0
4.331671125E0,6.735992432E-3,-4.176315308E-1,9.844428406E0,9.853285346E0
4.341703125E0,1.511856079E-2,-4.275109863E-1,9.857002258E0,9.866280339E0
4.351734125E0,2.350112915E-2,-4.334985352E-1,9.870623932E0,9.880166501E0
4.361766125E0,2.290237427E-2,-4.360432434E-1,9.865384827E0,9.875043089E0
4.371798125E0,4.894821167E-2,-4.318519592E-1,9.861941986E0,9.871514158E0
4.381829125E0,3.996688843E-2,-4.375401306E-1,9.864337006E0,9.874116835E0
4.391861125E0,3.682342529E-2,-4.328997803E-1,9.870474243E0,9.880031375E0
4.401892125E0,3.832031250E-2,-4.152365112E-1,9.870474243E0,9.879278900E0
4.411924125E0,5.164260864E-2,-4.113446045E-1,9.858648834E0,9.867361764E0
4.421955125E0,5.478607178E-2,-4.213737488E-1,9.853409729E0,9.862567649E0
4.431987125E0,4.026626587E-2,-4.174818420E-1,9.872270508E0,9.881175914E0
4.442018125E0,4.565505981E-2,-4.080514526E-1,9.846823425E0,9.855380355E0
4.452050125E0,4.400848389E-2,-4.227209473E-1,9.837692413E0,9.846868627E0
4.462081125E0,2.829116821E-2,-4.104464722E-1,9.888287201E0,9.896842449E0
4.472113125E0,3.951782227E-2,-4.209246826E-1,9.902956696E0,9.911977127E0
4.482144125E0,4.834945679E-2,-4.082011414E-1,9.877210236E0,9.885759853E0
4.492176125E0,3.547622681E-2,-3.873944092E-1,9.800569611E0,9.808287194E0
4.502207125E0,6.885681152E-3,-3.857478333E-1,9.750423889E0,9.758053844E0
4.512239125E0,-3.248245239E-2,-3.649411011E-1,9.784852295E0,9.791709327E0
4.522271125E0,-2.275268555E-2,-3.670367432E-1,9.843679962E0,9.850546627E0
4.532302125E0,6.436614990E-3,-3.737727356E-1,9.856253815E0,9.863340547E0
4.542334125E0,3.532653809E-2,-3.703298950E-1,9.839638367E0,9.846668238E0
4.552365125E0,3.607498169E-2,-3.832031250E-1,9.848619690E0,9.856137978E0
4.562397125E0,2.305206299E-2,-3.957769775E-1,9.953252106E0,9.961144427E0
4.572428125E0,2.185455322E-2,-4.032614136E-1,9.979297943E0,9.987466387E0
4.582460125E0,7.274871826E-2,-4.192781067E-1,9.855954437E0,9.865136815E0
4.592491125E0,6.391708374E-2,-4.297563171E-1,9.762099609E0,9.771763642E0
4.602523125E0,-1.182540894E-2,-4.105961609E-1,9.737550659E0,9.746210642E0
4.612554125E0,-4.864883423E-2,-4.261637878E-1,9.759105835E0,9.768527473E0
4.622586125E0,-2.589614868E-2,-4.360432434E-1,9.779014435E0,9.788765379E0
4.632617125E0,2.395019531E-2,-4.237687683E-1,9.810598755E0,9.819776042E0
4.642649125E0,4.969665527E-2,-4.312532043E-1,9.857451324E0,9.867005407E0
4.652681125E0,7.274871826E-2,-4.346960449E-1,9.901908875E0,9.911712889E0
4.662712125E0,8.756790161E-2,-4.216731262E-1,9.923014984E0,9.932356354E0
4.672744125E0,7.334747314E-2,-4.073030090E-1,9.901908875E0,9.910553716E0
4.682775125E0,4.266128540E-2,-3.978726196E-1,9.846973114E0,9.855100310E0
4.692807125E0,7.035369873E-3,-3.719764709E-1,9.833052063E0,9.840087848E0
4.702838125E0,-2.888992310E-2,-3.549119568E-1,9.822873230E0,9.829325288E0
4.712870125E0,-3.173400879E-2,-3.342549133E-1,9.843230896E0,9.848955674E0
4.722901125E0,-2.125579834E-2,-3.216810608E-1,9.865833893E0,9.871099681E0
4.732933125E0,-2.050735474E-2,-3.153941345E-1,9.908046112E0,9.913085885E0
4.742964125E0,2.095642090E-3,-3.306623840E-1,9.901908875E0,9.907428595E0
4.752996125E0,6.885681152E-3,-3.303630066E-1,9.896520081E0,9.902034984E0
4.763027125E0,2.200424194E-2,-3.562591553E-1,9.885742493E0,9.892184258E0
4.773059125E0,2.469863892E-2,-3.715274048E-1,9.882149963E0,9.889162277E0
4.783090125E0,3.143463135E-2,-3.891906738E-1,9.847272491E0,9.855010555E0
4.793122125E0,3.038681030E-2,-3.951782227E-1,9.831854553E0,9.839840097E0
4.803154125E0,2.140548706E-2,-4.110452271E-1,9.831405487E0,9.840017796E0
4.813185125E0,2.035766602E-2,-4.385879517E-1,9.826316071E0,9.836120238E0
4.823217125E0,2.544708252E-2,-4.439767456E-1,9.839638367E0,9.849682538E0
4.833248125E0,3.517684937E-2,-4.333488464E-1,9.866432648E0,9.876007383E0
4.843280125E0,4.550537109E-2,-4.248165894E-1,9.892777863E0,9.901999480E0
4.853311125E0,4.490661621E-2,-4.123924255E-1,9.914183350E0,9.922858238E0
4.863343125E0,3.951782227E-2,-3.878434753E-1,9.904603271E0,9.912272705E0
4.873374125E0,3.592529297E-2,-3.746708679E-1,9.795480194E0,9.802708866E0
4.883406125E0,4.340972900E-3,-3.653901672E-1,9.791737976E0,9.798554047E0
4.893437125E0,-1.077758789E-2,-3.510200500E-1,9.846224670E0,9.852485549E0
4.903469125E0,-1.197509766E-2,-3.252735901E-1,9.749376068E0,9.754808047E0
4.913500125E0,-3.861968994E-2,-3.186872864E-1,9.778565369E0,9.783833284E0
4.923532125E0,-4.670288086E-2,-3.210823059E-1,9.856253815E0,9.861592887E0
4.933563125E0,8.831634521E-3,-3.245251465E-1,9.865384827E0,9.870725016E0
4.943595125E0,3.263214111E-2,-3.350033569E-1,9.872420197E0,9.878156338E0
4.953627125E0,4.101470947E-2,-3.525169373E-1,9.867330780E0,9.873710909E0
4.963658125E0,2.769241333E-2,-3.628454590E-1,9.877210236E0,9.883911459E0
4.973690125E0,1.781295776E-2,-3.914360046E-1,9.888736267E0,9.896496572E0
4.983721125E0,3.577560425E-2,-4.020639038E-1,9.871821442E0,9.880070539E0
4.993753125E0,4.745132446E-2,-4.105961609E-1,9.875863037E0,9.884508666E0
5.003784125E0,3.906875610E-2,-4.204756165E-1,9.885293427E0,9.894309084E0
5.013816125E0,4.191284180E-2,-4.001179504E-1,9.874964905E0,9.883156527E0
5.023847125E0,3.397933960E-2,-4.080514526E-1,9.871971130E0,9.880459229E0
5.033879125E0,4.535568237E-2,-4.031117249E-1,9.842183075E0,9.850539269E0
5.043910125E0,3.817062378E-2,-3.920347595E-1,9.843230896E0,9.851108705E0
5.053942125E0,3.727249146E-2,-3.858975220E-1,9.847871246E0,9.855499694E0
5.063973125E0,4.924758911E-2,-3.858975220E-1,9.851463776E0,9.859141988E0
5.074005125E0,5.403762817E-2,-3.710783386E-1,9.840237122E0,9.847379642E0
5.084037125E0,3.891906738E-2,-3.640429688E-1,9.835596771E0,9.842408538E0
5.094068125E0,2.829116821E-2,-3.773652649E-1,9.826166382E0,9.833450600E0
5.104100125E0,2.215393066E-2,-3.767665100E-1,9.829459534E0,9.836702625E0
5.114131125E0,1.751358032E-2,-3.724255371E-1,9.840686188E0,9.847746552E0
5.124163125E0,1.646575928E-3,-3.969744873E-1,9.840386810E0,9.848390936E0
5.134194125E0,2.529739380E-2,-3.815565491E-1,9.854307861E0,9.861724433E0
5.144226125E0,3.876937866E-2,-3.879931641E-1,9.866133270E0,9.873835499E0
5.154257125E0,3.817062378E-2,-3.870950317E-1,9.867031403E0,9.874695350E0
5.164289125E0,2.065704346E-2,-3.724255371E-1,9.874366150E0,9.881408521E0
5.174320125E0,2.514770508E-2,-3.878434753E-1,9.859696655E0,9.867353906E0
5.184352125E0,-7.783813477E-3,-3.722758484E-1,9.843679962E0,9.850720029E0
5.194383125E0,-2.544708252E-3,-3.821553040E-1,9.840985565E0,9.848403223E0
5.204415125E0,-1.197509766E-3,-3.969744873E-1,9.854158173E0,9.862151057E0
5.214446125E0,-3.293151855E-3,-3.956272888E-1,9.847422180E0,9.855366832E0
5.224478083E0,1.811233521E-2,-4.034111023E-1,9.851164398E0,9.859437538E0
5.234510083E0,3.113525391E-2,-4.191284180E-1,9.850565643E0,9.859527450E0
5.244541083E0,4.655319214E-2,-4.059558105E-1,9.857601013E0,9.866066342E0
5.254573083E0,4.745132446E-2,-3.951782227E-1,9.875563660E0,9.883581084E0
5.264604083E0,5.987548828E-2,-4.029620361E-1,9.873917084E0,9.882317646E0
5.274636083E0,5.343887329E-2,-4.152365112E-1,9.867330780E0,9.876208473E0
5.284667083E0,6.017486572E-2,-3.921844482E-1,9.854008484E0,9.861993351E0
5.294699083E0,4.849914551E-2,-4.032614136E-1,9.854906616E0,9.863273105E0
5.304730083E0,4.969665527E-2,-3.971241760E-1,9.847571869E0,9.855701349E0
5.314762083E0,4.071533203E-2,-3.911366272E-1,9.859247589E0,9.867087140E0
5.324793083E0,3.323089600E-2,-4.085005188E-1,9.851164398E0,9.859686454E0
5.334825083E0,4.715194702E-2,-4.025129700E-1,9.860295410E0,9.868620247E0
5.344856083E0,3.906875610E-2,-3.978726196E-1,9.863887939E0,9.871986339E0
5.354888083E0,3.113525391E-2,-3.918850708E-1,9.840835876E0,9.848684890E0
5.364920083E0,2.948867798E-2,-3.990701294E-1,9.839338989E0,9.847472686E0
5.374951083E0,1.646575928E-2,-4.077520752E-1,9.843829651E0,9.852284764E0
5.384983083E0,1.556762695E-2,-4.004173279E-1,9.874665527E0,9.882792908E0
5.395014083E0,2.604583740E-2,-4.011657715E-1,9.878108368E0,9.886285313E0
5.405046083E0,3.442840576E-2,-4.035607910E-1,9.881251831E0,9.889549250E0
5.415077083E0,2.439926147E-2,-4.167333984E-1,9.866732025E0,9.875558865E0
5.425109083E0,6.436614990E-3,-4.083508301E-1,9.856253815E0,9.864711404E0
5.435140083E0,-3.143463135E-3,-4.002676392E-1,9.831405487E0,9.839550697E0
5.445172083E0,3.293151855E-3,-3.966751099E-1,9.873917084E0,9.881882440E0
5.455203083E0,7.035369873E-3,-3.930825806E-1,9.909093933E0,9.916889935E0
5.465235083E0,3.188369751E-2,-3.821553040E-1,9.879455566E0,9.886895445E0
5.475266083E0,3.098556519E-2,-3.721261597E-1,9.824669495E0,9.831763253E0
5.485298083E0,1.332229614E-2,-3.658392334E-1,9.780361633E0,9.787210507E0
5.495329083E0,-7.484436035E-4,-3.514691162E-1,9.803563385E0,9.809861678E0
5.505361083E0,1.062789917E-2,-3.782633972E-1,9.867330780E0,9.874584187E0
5.515393083E0,2.499801636E-2,-3.941304016E-1,9.901459808E0,9.909332470E0
5.525424083E0,6.661148071E-2,-3.929328918E-1,9.851463776E0,9.859521888E0
5.535456083E0,4.999603271E-2,-4.008663940E-1,9.824968872E0,9.833270402E0
5.545487083E0,4.146377563E-2,-4.147874451E-1,9.905052338E0,9.913820136E0
5.555519083E0,4.281097412E-2,-4.272116089E-1,9.964179382E0,9.973425354E0
5.565550083E0,8.756790161E-2,-4.541555786E-1,9.863738251E0,9.874576330E0
5.575582083E0,6.915618896E-2,-4.376898193E-1,9.777816925E0,9.787852613E0
5.585613083E0,-7.634124756E-3,-4.128414917E-1,9.744286652E0,9.753031258E0
5.595645083E0,-4.550537109E-2,-4.210743713E-1,9.748178558E0,9.757374625E0
5.605676083E0,-2.365081787E-2,-4.132905579E-1,9.769584045E0,9.778350621E0
5.615708083E0,1.032852173E-2,-4.234693909E-1,9.828411713E0,9.837535758E0
5.625739083E0,3.053649902E-2,-4.064048767E-1,9.923014984E0,9.931380759E0
5.635771083E0,7.394622803E-2,-4.153862000E-1,9.974058838E0,9.982978686E0
5.645803083E0,9.160949707E-2,-4.162843323E-1,9.959838409E0,9.968955115E0
5.655834083E0,5.867797852E-2,-3.948788452E-1,9.914333038E0,9.922367258E0
5.665866083E0,1.736389160E-2,-3.855981445E-1,9.845775604E0,9.853338758E0
5.675897083E0,-2.469863892E-2,-3.800596619E-1,9.808353424E0,9.815745120E0
5.685929083E0,-4.176315308E-2,-3.662882996E-1,9.800419922E0,9.807351423E0
5.695960083E0,-4.565505981E-2,-3.438349915E-1,9.854457550E0,9.860559847E0
5.705992083E0,-2.664459229E-2,-3.372486877E-1,9.874964905E0,9.880757991E0
5.716023083E0,-1.945953369E-2,-3.546125793E-1,9.904303894E0,9.910669220E0
5.726055083E0,8.981323242E-3,-3.673361206E-1,9.927206268E0,9.934004267E0
5.736086083E0,2.005828857E-2,-3.996688843E-1,9.933044128E0,9.941101710E0
5.746118083E0,2.395019531E-2,-4.328997803E-1,9.917925568E0,9.927397615E0
5.756149083E0,1.826202393E-2,-4.326004028E-1,9.887688446E0,9.897164211E0
5.766181083E0,1.451980591E-2,-4.483177185E-1,9.859097900E0,9.869296379E0
5.776212083E0,2.230361938E-2,-4.686753845E-1,9.828860779E0,9.840053774E0
5.786244083E0,1.317260742E-2,-4.751119995E-1,9.823921051E0,9.835412027E0
5.796276083E0,2.754272461E-2,-4.611909485E-1,9.838740234E0,9.849581976E0
5.806307083E0,4.191284180E-2,-4.525090027E-1,9.873318329E0,9.883771340E0
5.816339083E0,3.966751099E-2,-4.567002869E-1,9.912536774E0,9.923131257E0
5.826370083E0,3.921844482E-2,-4.483177185E-1,9.934241638E0,9.944429787E0
5.836402083E0,3.607498169E-2,-4.293072510E-1,9.946216736E0,9.955542852E0
5.846433083E0,2.350112915E-2,-4.128414917E-1,9.947563934E0,9.956154811E0
5.856465083E0,1.826202393E-2,-4.095483398E-1,9.842033386E0,9.850567726E0
5.866496083E0,4.340972900E-3,-3.793112183E-1,9.841734009E0,9.849041788E0
5.876528083E0,2.095642090E-3,-3.614982605E-1,9.878557434E0,9.885169820E0
5.886559083E0,-1.347198486E-3,-3.508703613E-1,9.772727509E0,9.779024224E0
5.896591083E0,-1.721420288E-2,-3.430865479E-1,9.763446808E0,9.769488128E0
5.906622083E0,-1.721420288E-2,-3.662882996E-1,9.834099884E0,9.840934101E0
5.916654083E0,2.424957275E-2,-3.755690002E-1,9.862840118E0,9.870018000E0
5.926686083E0,7.289840698E-2,-3.824546814E-1,9.886191559E0,9.893855128E0
5.936717083E0,7.274871826E-2,-4.019142151E-1,9.893975372E0,9.902402541E0
5.946749083E0,5.882766724E-2,-4.312532043E-1,9.900112610E0,9.909675560E0
5.956780083E0,7.200027466E-2,-4.379891968E-1,9.872719574E0,9.882692465E0
5.966812083E0,6.571334839E-2,-4.504133606E-1,9.840087433E0,9.850609683E0
5.976843083E0,6.795867920E-2,-4.351451111E-1,9.843530273E0,9.853377994E0
5.986875083E0,8.412506104E-2,-4.364923096E-1,9.840686188E0,9.850721152E0
5.996906083E0,9.071136475E-2,-4.117936707E-1,9.857750702E0,9.866764996E0
6.006938083E0,8.337661743E-2,-4.092489624E-1,9.860145721E0,9.868987284E0
6.016969083E0,8.187973022E-2,-3.998185730E-1,9.854607239E0,9.863054446E0
6.027001083E0,7.559280396E-2,-4.011657715E-1,9.858948212E0,9.867396216E0
6.037032083E0,8.187973022E-2,-4.019142151E-1,9.867480469E0,9.876001728E0
6.047064083E0,7.469467163E-2,-3.972738647E-1,9.869276733E0,9.877551775E0
6.057096083E0,5.269042969E-2,-4.008663940E-1,9.850865021E0,9.859158778E0
6.067127083E0,5.119354248E-2,-3.986210632E-1,9.834848328E0,9.843056495E0
6.077159083E0,4.191284180E-2,-4.056564331E-1,9.826316071E0,9.834775104E0
6.087190083E0,4.790039063E-2,-4.093986511E-1,9.814939728E0,9.823591174E0
6.097222083E0,3.832031250E-2,-4.005670166E-1,9.825417938E0,9.833654460E0
6.107253083E0,4.251159668E-2,-4.001179504E-1,9.824968872E0,9.833204714E0
6.117285083E0,5.224136353E-2,-4.132905579E-1,9.842632141E0,9.851443839E0
6.127316083E0,5.044509888E-2,-4.140390015E-1,9.844278717E0,9.853111004E0
6.137348083E0,5.912704468E-2,-4.122427368E-1,9.838440857E0,9.847251321E0
6.147379083E0,6.810836792E-2,-4.122427368E-1,9.835297394E0,9.844168713E0
6.157411083E0,7.469467163E-2,-4.032614136E-1,9.847122803E0,9.855659620E0
6.167442083E0,7.214996338E-2,-3.965254211E-1,9.843380585E0,9.851628259E0
6.177474083E0,5.553451538E-2,-4.002676392E-1,9.846074982E0,9.854364049E0
6.187505083E0,7.035369873E-2,-4.004173279E-1,9.874815216E0,9.883180623E0
6.197537083E0,6.840774536E-2,-4.174818420E-1,9.871671753E0,9.880732458E0
6.207569083E0,7.259902954E-2,-4.026626587E-1,9.855355682E0,9.863845268E0
6.217600083E0,8.666976929E-2,-4.044589233E-1,9.861043854E0,9.869715526E0
6.227632458E0,8.607101440E-2,-4.059558105E-1,9.867630157E0,9.876352225E0
6.237663458E0,8.876541138E-2,-3.930825806E-1,9.853858795E0,9.862095435E0
6.247695458E0,1.020877075E-1,-3.869453430E-1,9.849667511E0,9.857793804E0
6.257726458E0,1.157093811E-1,-3.951782227E-1,9.845176849E0,9.853784130E0
6.267758458E0,1.161584473E-1,-3.906875610E-1,9.846524048E0,9.854956387E0
6.277789458E0,1.288819885E-1,-3.873944092E-1,9.870174866E0,9.878615129E0
6.287821458E0,1.231938171E-1,-3.945794678E-1,9.868528290E0,9.877181798E0
6.297852458E0,1.294807434E-1,-3.930825806E-1,9.866282959E0,9.874959170E0
6.307884458E0,1.131646729E-1,-4.034111023E-1,9.851314087E0,9.860219876E0
6.317915458E0,1.152603149E-1,-4.071533203E-1,9.843829651E0,9.852920428E0
6.327947458E0,7.753875732E-2,-4.086502075E-1,9.819131012E0,9.827936766E0
6.337979458E0,6.855743408E-2,-4.108955383E-1,9.837991791E0,9.846807490E0
6.348010458E0,7.679031372E-2,-4.071533203E-1,9.881102142E0,9.889785141E0
6.358042458E0,8.891510010E-2,-4.212240601E-1,9.912536774E0,9.921880915E0
6.368073458E0,9.340576172E-2,-3.920347595E-1,9.889335022E0,9.897543284E0
6.378105458E0,7.978408813E-2,-3.773652649E-1,9.841584320E0,9.849139656E0
6.388136458E0,8.337661743E-2,-3.769161987E-1,9.798623657E0,9.806224710E0
6.398168458E0,5.882766724E-2,-3.701802063E-1,9.821526031E0,9.828675784E0
6.408199458E0,5.987548828E-2,-3.694317627E-1,9.859546967E0,9.866647419E0
6.418231458E0,6.646179199E-2,-3.631448364E-1,9.890831909E0,9.897719293E0
6.428262458E0,8.876541138E-2,-3.665876770E-1,9.872569885E0,9.879772364E0
6.438294458E0,9.101074219E-2,-3.694317627E-1,9.837991791E0,9.845346376E0
6.448325458E0,8.187973022E-2,-3.782633972E-1,9.847122803E0,9.854725515E0
6.458357458E0,8.247848511E-2,-3.881428528E-1,9.884544983E0,9.892506613E0
6.468389458E0,1.387614441E-1,-3.814068604E-1,9.855505371E0,9.863858882E0
6.478420458E0,1.763333130E-1,-4.085005188E-1,9.812544708E0,9.822626928E0
6.488452458E0,1.450483704E-1,-4.107458496E-1,9.786798248E0,9.796487694E0
6.498483458E0,8.756790161E-2,-3.998185730E-1,9.792336731E0,9.800886780E0
6.508515458E0,8.113128662E-2,-4.210743713E-1,9.794432373E0,9.803815146E0
6.518546458E0,8.756790161E-2,-4.080514526E-1,9.826166382E0,9.835025160E0
6.528578458E0,1.019380188E-1,-4.076023865E-1,9.859247589E0,9.868196091E0
6.538609458E0,1.130149841E-1,-3.939807129E-1,9.871072998E0,9.879578702E0
6.548641458E0,1.339714050E-1,-3.890409851E-1,9.852810974E0,9.861398751E0
6.558672458E0,1.336720276E-1,-3.638932800E-1,9.825717316E0,9.833361953E0
6.568704458E0,1.212478638E-1,-3.318598938E-1,9.771380310E0,9.777765859E0
6.578735458E0,9.729766846E-2,-3.085084534E-1,9.769584045E0,9.774938195E0
6.588767458E0,8.008346558E-2,-3.031196594E-1,9.764494629E0,9.769526613E0
6.598799458E0,7.035369873E-2,-3.234773254E-1,9.831854553E0,9.837426044E0
6.608830458E0,6.032455444E-2,-3.267704773E-1,9.923913116E0,9.929474787E0
6.618862458E0,7.544311523E-2,-3.423381042E-1,9.946965179E0,9.953140375E0
6.628893458E0,1.139131165E-1,-3.606001282E-1,9.956994324E0,9.964173052E0
6.638925458E0,1.142124939E-1,-3.718267822E-1,9.932145996E0,9.939759742E0
6.648956458E0,1.071771240E-1,-3.812571716E-1,9.891430664E0,9.899355764E0
6.658988458E0,9.250762939E-2,-3.721261597E-1,9.857601013E0,9.865056172E0
6.669019458E0,8.202941895E-2,-3.820056152E-1,9.825268250E0,9.833033779E0
6.679051458E0,8.397537231E-2,-3.852987671E-1,9.824968872E0,9.832879555E0
6.689082458E0,7.828720093E-2,-3.761677551E-1,9.807455292E0,9.814978877E0
6.699114458E0,9.160949707E-2,-3.945794678E-1,9.833052063E0,9.841392083E0
6.709145458E0,1.020877075E-1,-4.031117249E-1,9.848769379E0,9.857544280E0
6.719177458E0,1.178050232E-1,-3.852987671E-1,9.871222687E0,9.879441811E0
6.729209458E0,1.248403931E-1,-3.879931641E-1,9.896969147E0,9.905358253E0
6.739240458E0,1.067280579E-1,-4.008663940E-1,9.888885956E0,9.897583048E0
6.749272458E0,1.239422607E-1,-4.044589233E-1,9.784103851E0,9.793244451E0
6.759303458E0,1.037342834E-1,-3.882925415E-1,9.842781830E0,9.850984014E0
6.769335458E0,1.071771240E-1,-3.576063538E-1,9.865684204E0,9.872745011E0
6.779366458E0,1.218466187E-1,-3.451821899E-1,9.790540466E0,9.797381281E0
6.789398458E0,8.382568359E-2,-3.317102051E-1,9.783056030E0,9.789036914E0
6.799429458E0,7.574249268E-2,-3.342549133E-1,9.795480194E0,9.801474150E0
6.809461458E0,1.040336609E-1,-3.272195435E-1,9.789941711E0,9.795961124E0
6.819492458E0,1.296304321E-1,-3.317102051E-1,9.852511597E0,9.858946215E0
6.829524458E0,1.402583313E-1,-3.335064697E-1,9.920470276E0,9.927065501E0
6.839555458E0,1.610650635E-1,-3.498225403E-1,9.921368408E0,9.928840257E0
6.849587458E0,1.639091492E-1,-3.610491943E-1,9.920170898E0,9.928092132E0
6.859619458E0,1.469943237E-1,-3.772155762E-1,9.892029419E0,9.900310346E0
6.869650458E0,1.469943237E-1,-3.749702454E-1,9.862540741E0,9.870760856E0
6.879682458E0,1.351689148E-1,-3.781137085E-1,9.829010468E0,9.837209329E0
6.889713458E0,1.234931946E-1,-3.814068604E-1,9.800719299E0,9.808915360E0
6.899745458E0,1.258882141E-1,-3.616479492E-1,9.803713074E0,9.811188874E0
6.909776458E0,1.187031555E-1,-3.706292725E-1,9.809251556E0,9.816968605E0
6.919808458E0,1.408570862E-1,-3.614982605E-1,9.851164398E0,9.858801231E0
6.929839458E0,1.556762695E-1,-3.715274048E-1,9.859996033E0,9.868221191E0
6.939871458E0,1.606159973E-1,-3.698808289E-1,9.846224670E0,9.854478656E0
6.949902458E0,1.375639343E-1,-3.739224243E-1,9.842931519E0,9.850991965E0
6.959934458E0,1.097218323E-1,-3.760180664E-1,9.824370117E0,9.832175582E0
6.969965458E0,1.095721436E-1,-3.748205566E-1,9.827812958E0,9.835568313E0
6.979997458E0,9.834548950E-2,-3.854484558E-1,9.817035370E0,9.825091643E0
6.990029458E0,1.038839722E-1,-3.873944092E-1,9.808353424E0,9.816550474E0
7.000060458E0,1.193019104E-1,-3.890409851E-1,9.820178833E0,9.828606114E0
7.010092458E0,1.181044006E-1,-3.954776001E-1,9.824519806E0,9.833185679E0
7.020123458E0,1.398092651E-1,-3.900888062E-1,9.829609222E0,9.838339970E0
7.030155458E0,1.431024170E-1,-3.824546814E-1,9.831255798E0,9.839732743E0
7.040186458E0,1.468446350E-1,-3.676354980E-1,9.848020935E0,9.855974612E0
7.050218458E0,1.456471252E-1,-3.686833191E-1,9.841883698E0,9.849863714E0
7.060249458E0,1.451980591E-1,-3.740721130E-1,9.858798523E0,9.866961069E0
7.070281458E0,1.266366577E-1,-3.658392334E-1,9.864935760E0,9.872529197E0
7.080312458E0,1.161584473E-1,-3.674858093E-1,9.835297394E0,9.842845799E0
7.090344458E0,1.088237000E-1,-3.622467041E-1,9.833501129E0,9.840772822E0
7.100375458E0,1.160087585E-1,-3.543132019E-1,9.844877472E0,9.851934242E0
7.110407458E0,1.128652954E-1,-3.450325012E-1,9.850116577E0,9.856803873E0
7.120439458E0,1.233435059E-1,-3.510200500E-1,9.878407745E0,9.885411892E0
7.130470458E0,1.303788757E-1,-3.489244080E-1,9.875713348E0,9.882735504E0
7.140502458E0,1.338217163E-1,-3.600013733E-1,9.873617706E0,9.881084751E0
7.150533458E0,1.341210938E-1,-3.667373657E-1,9.845176849E0,9.852917941E0
7.160565458E0,1.377136230E-1,-3.848497009E-1,9.814490662E0,9.822998589E0
7.170596458E0,1.282832336E-1,-3.963757324E-1,9.823022919E0,9.831853822E0
7.180628458E0,1.288819885E-1,-4.005670166E-1,9.835447083E0,9.844444312E0
7.190659458E0,1.261875916E-1,-4.038601685E-1,9.850116577E0,9.859199913E0
7.200691458E0,1.326242065E-1,-4.022135925E-1,9.842033386E0,9.851141362E0
7.210722458E0,1.172062683E-1,-3.803590393E-1,9.785001984E0,9.793093185E0
7.220754458E0,1.085243225E-1,-3.614982605E-1,9.763895874E0,9.771188319E0
7.230786458E0,1.059796143E-1,-3.570075989E-1,9.796228638E0,9.803304628E0
7.240817458E0,9.669891357E-2,-3.709286499E-1,9.843530273E0,9.850991168E0
7.250849458E0,1.049317932E-1,-3.579057312E-1,9.881551208E0,9.888587436E0
7.260880458E0,1.197509766E-1,-3.574566650E-1,9.891580353E0,9.898761409E0
7.270912458E0,1.139131165E-1,-3.543132019E-1,9.874964905E0,9.881975810E0
7.280943458E0,9.969268799E-2,-3.558100891E-1,9.920320587E0,9.927200008E0
7.290975458E0,1.139131165E-1,-3.703298950E-1,9.955347748E0,9.962884583E0
7.301006458E0,1.683998108E-1,-3.894900513E-1,9.856852570E0,9.865982139E0
7.311038458E0,1.649569702E-1,-3.930825806E-1,9.794731750E0,9.804004018E0
7.321069458E0,8.876541138E-2,-3.884422302E-1,9.784253540E0,9.792363555E0
7.331101458E0,6.676116943E-2,-4.043092346E-1,9.785750427E0,9.794326645E0
7.341132458E0,5.792953491E-2,-4.158352661E-1,9.770033112E0,9.779050148E0
7.351164458E0,5.777984619E-2,-4.198768616E-1,9.824070740E0,9.833209089E0
7.361195458E0,6.765930176E-2,-4.405339050E-1,9.904004517E0,9.914028110E0
7.371227458E0,1.088237000E-1,-4.246669006E-1,9.929900665E0,9.939573019E0
7.381258458E0,1.462458801E-1,-4.144880676E-1,9.895771637E0,9.905527977E0
7.391290458E0,1.368154907E-1,-3.881428528E-1,9.851912842E0,9.860505058E0
7.401322458E0,1.293310547E-1,-3.559597778E-1,9.800868988E0,9.808183665E0
7.411353458E0,9.639953613E-2,-3.490740967E-1,9.766590271E0,9.773301956E0
7.421385458E0,6.286926270E-2,-3.159928894E-1,9.792037354E0,9.797336351E0
7.431416458E0,4.924758911E-2,-2.987786865E-1,9.829459534E0,9.834122673E0
7.441448458E0,7.349716187E-2,-3.038681030E-1,9.893975372E0,9.898913391E0
7.451479458E0,9.610015869E-2,-3.215313721E-1,9.919572144E0,9.925247059E0
7.461511458E0,1.077758789E-1,-3.402424622E-1,9.921667786E0,9.928085023E0
7.471542458E0,1.261875916E-1,-3.504212952E-1,9.903405762E0,9.910406857E0
7.481574458E0,1.222956848E-1,-3.679348755E-1,9.857002258E0,9.864624971E0
7.491605458E0,1.324745178E-1,-3.864962769E-1,9.834548950E0,9.843032151E0
7.501637458E0,1.429527283E-1,-4.119433594E-1,9.818532257E0,9.828209832E0
7.511669458E0,1.498384094E-1,-4.164340210E-1,9.804461517E0,9.814445195E0
7.521700458E0,1.378633118E-1,-4.327500916E-1,9.821526031E0,9.832021792E0
7.531732458E0,1.354682922E-1,-4.360432434E-1,9.836943970E0,9.847535328E0
7.541763458E0,1.182540894E-1,-4.394860840E-1,9.839338989E0,9.849859075E0
7.551795458E0,1.276844788E-1,-4.532574463E-1,9.860445099E0,9.871682895E0
7.561826458E0,1.411564636E-1,-4.418811035E-1,9.897717590E0,9.908582015E0
7.571858458E0,1.079255676E-1,-4.216731262E-1,9.909542999E0,9.919097671E0
7.581889458E0,9.265731812E-2,-4.061054993E-1,9.871821442E0,9.880605530E0
7.591921458E0,8.232879639E-2,-3.948788452E-1,9.771230621E0,9.779552914E0
7.601952458E0,5.254074097E-2,-3.811074829E-1,9.860295410E0,9.867797577E0
7.611984458E0,7.035369873E-2,-3.598516846E-1,9.863139496E0,9.869952563E0
7.622015458E0,7.499404907E-2,-3.438349915E-1,9.784852295E0,9.791178736E0
7.632047458E0,3.517684937E-2,-3.357518005E-1,9.772577820E0,9.778407024E0
7.642078458E0,4.760101318E-2,-3.264710999E-1,9.796977081E0,9.802530753E0
7.652110458E0,8.262817383E-2,-3.555107117E-1,9.835447083E0,9.842216955E0
7.662142458E0,1.270857239E-1,-3.797602844E-1,9.869127045E0,9.877248467E0
7.672173458E0,1.428030396E-1,-3.944297791E-1,9.892478485E0,9.901368498E0
7.682205458E0,1.456471252E-1,-4.043092346E-1,9.927056580E0,9.936354028E0
7.692236458E0,1.462458801E-1,-4.131408691E-1,9.955198059E0,9.964840271E0
7.702268458E0,1.486408997E-1,-4.171824646E-1,9.925110626E0,9.934986476E0
7.712299458E0,1.404080200E-1,-4.116439819E-1,9.905950470E0,9.915493931E0
7.722331458E0,1.574725342E-1,-4.180805969E-1,9.871971130E0,9.882074832E0
7.732362458E0,1.425036621E-1,-4.074526978E-1,9.853559418E0,9.863009591E0
7.742394458E0,1.426533508E-1,-4.077520752E-1,9.828411713E0,9.837900616E0
7.752425458E0,1.360670471E-1,-3.954776001E-1,9.843679962E0,9.852560681E0
7.762457458E0,1.474433899E-1,-4.014651489E-1,9.856852570E0,9.866126717E0
7.772489458E0,1.574725342E-1,-4.129911804E-1,9.854158173E0,9.864065724E0
7.782520458E0,1.850152588E-1,-4.177812195E-1,9.858199768E0,9.868782826E0
7.792552458E0,1.601669312E-1,-4.153862000E-1,9.848320312E0,9.858377763E0
7.802583458E0,1.410067749E-1,-4.252656555E-1,9.826166382E0,9.836375326E0
7.812615458E0,1.196012878E-1,-4.348457336E-1,9.800569611E0,9.810940830E0
7.822646458E0,1.032852173E-1,-4.339476013E-1,9.798623657E0,9.808771785E0
7.832678458E0,9.565109253E-2,-4.300556946E-1,9.846374359E0,9.856225700E0
7.842709458E0,1.131646729E-1,-4.186793518E-1,9.844129028E0,9.853678246E0
7.852741458E0,1.187031555E-1,-4.098477173E-1,9.852062531E0,9.861298175E0
7.862772458E0,1.221459961E-1,-4.047583008E-1,9.859546967E0,9.868607567E0
7.872804458E0,1.073268127E-1,-4.017645264E-1,9.877958679E0,9.886708322E0
7.882835458E0,1.236428833E-1,-3.863465881E-1,9.873318329E0,9.881647943E0
7.892867458E0,1.212478638E-1,-3.860472107E-1,9.868528290E0,9.876820546E0
7.902898458E0,1.227447510E-1,-3.662882996E-1,9.856553192E0,9.864120550E0
7.912930458E0,1.007405090E-1,-3.692820740E-1,9.846524048E0,9.853961321E0
7.922962458E0,1.110690308E-1,-3.707789612E-1,9.830507355E0,9.838124223E0
7.932993458E0,1.278341675E-1,-3.653901672E-1,9.833501129E0,9.841117620E0
7.943025458E0,1.375639343E-1,-3.552113342E-1,9.845775604E0,9.853141437E0
7.953056458E0,1.428030396E-1,-3.671864319E-1,9.862840118E0,9.870705840E0
7.963088458E0,1.499880981E-1,-3.712280273E-1,9.865085449E0,9.873207057E0
7.973119458E0,1.598675537E-1,-3.960763550E-1,9.864037628E0,9.873280734E0
7.983151458E0,1.646575928E-1,-3.924838257E-1,9.879156189E0,9.888320519E0
7.993182458E0,1.553768921E-1,-3.999682617E-1,9.861642609E0,9.870973180E0
8.003214458E0,1.567240906E-1,-4.215234375E-1,9.842033386E0,9.852302554E0
8.013245458E0,1.402583313E-1,-4.188290405E-1,9.828262024E0,9.838181975E0
8.023277458E0,1.303788757E-1,-4.234693909E-1,9.836045837E0,9.846020653E0
8.033309458E0,1.290316772E-1,-4.174818420E-1,9.877210236E0,9.886871209E0
8.043340458E0,1.396595764E-1,-4.116439819E-1,9.899214478E0,9.908753849E0
8.053372458E0,1.447489929E-1,-4.004173279E-1,9.852361908E0,9.861557761E0
8.063403458E0,1.242416382E-1,-3.814068604E-1,9.793085175E0,9.801297078E0
8.073435458E0,8.786727905E-2,-3.697311401E-1,9.769584045E0,9.776972650E0
8.083466458E0,6.571334839E-2,-3.567082214E-1,9.810449066E0,9.817151821E0
8.093498458E0,7.918533325E-2,-3.611988831E-1,9.865534515E0,9.872462014E0
8.103529458E0,1.113684082E-1,-3.622467041E-1,9.865684204E0,9.872960570E0
8.113561458E0,1.133143616E-1,-3.570075989E-1,9.832303619E0,9.839435402E0
8.123592458E0,1.053808594E-1,-3.417393494E-1,9.878108368E0,9.884579700E0
8.133624458E0,9.759704590E-2,-3.610491943E-1,9.954000549E0,9.961024477E0
8.143655458E0,1.273851013E-1,-3.749702454E-1,9.933343506E0,9.941234473E0
8.153687458E0,1.666035461E-1,-3.863465881E-1,9.835746460E0,9.844741178E0
8.163718458E0,9.849517822E-2,-3.902384949E-1,9.773026886E0,9.781310848E0
8.173750458E0,3.577560425E-2,-3.887416077E-1,9.751771088E0,9.759581921E0
8.183782458E0,2.020797729E-2,-4.016148376E-1,9.762848053E0,9.771126084E0
8.193813458E0,4.355941772E-2,-4.246669006E-1,9.773625641E0,9.782944218E0
8.203845458E0,7.110214233E-2,-4.260140991E-1,9.829010468E0,9.838495327E0
8.213876458E0,9.235794067E-2,-4.236190796E-1,9.893975372E0,9.903470694E0
8.223908458E0,1.227447510E-1,-4.297563171E-1,9.941726074E0,9.951767386E0
8.233939583E0,1.445993042E-1,-4.191284180E-1,9.939480743E0,9.949364554E0
8.243971583E0,1.212478638E-1,-3.887416077E-1,9.888885956E0,9.897266619E0
8.254002583E0,8.607101440E-2,-3.689826965E-1,9.845027161E0,9.852315273E0
8.264034583E0,5.343887329E-2,-3.579057312E-1,9.821376343E0,9.828040776E0
8.274065583E0,4.475692749E-2,-3.370989990E-1,9.814041595E0,9.819931331E0
8.284097583E0,4.760101318E-2,-3.200344849E-1,9.833351440E0,9.838673106E0
8.294128583E0,4.191284180E-2,-3.097059631E-1,9.873617706E0,9.878562703E0
8.304160583E0,5.209167480E-2,-3.095562744E-1,9.887987823E0,9.892969313E0
8.314192583E0,5.269042969E-2,-3.207829285E-1,9.897268524E0,9.902605829E0
8.324223583E0,5.403762817E-2,-3.107537842E-1,9.898765411E0,9.903789409E0
8.334255583E0,5.119354248E-2,-3.496728516E-1,9.886490936E0,9.892805210E0
8.344286583E0,4.685256958E-2,-3.607498169E-1,9.856104126E0,9.862815224E0
8.354318583E0,6.182144165E-2,-3.731739807E-1,9.851164398E0,9.858423845E0
8.364349583E0,4.969665527E-2,-3.869453430E-1,9.849068756E0,9.856792167E0
8.374381583E0,6.182144165E-2,-4.155358887E-1,9.834998016E0,9.843966576E0
8.384412583E0,6.286926270E-2,-4.219725037E-1,9.835147705E0,9.844396564E0
8.394444583E0,5.792953491E-2,-4.158352661E-1,9.846374359E0,9.855321548E0
8.404475583E0,6.286926270E-2,-4.096980286E-1,9.877958679E0,9.886651237E0
8.414507583E0,6.047424316E-2,-3.951782227E-1,9.880204010E0,9.888288742E0
8.424538583E0,7.185058594E-2,-4.013154602E-1,9.906698914E0,9.915084466E0
8.434570583E0,6.256988525E-2,-3.821553040E-1,9.901759186E0,9.909328567E0
8.444601583E0,5.239105225E-2,-3.730242920E-1,9.789642334E0,9.796886698E0
8.454633583E0,4.206253052E-2,-3.462300110E-1,9.840835876E0,9.847014534E0
8.464665583E0,3.353027344E-2,-3.379971313E-1,9.879006500E0,9.884843740E0
8.474696583E0,3.158432007E-2,-3.164419556E-1,9.764344940E0,9.769522260E0
8.484728583E0,5.239105225E-3,-3.182382202E-1,9.775272217E0,9.780452440E0
8.494759583E0,-4.490661621E-3,-3.248245239E-1,9.855804749E0,9.861157051E0
8.504791583E0,4.326004028E-2,-3.384461975E-1,9.871522064E0,9.877416926E0
8.514822583E0,8.816665649E-2,-3.543132019E-1,9.846374359E0,9.853141592E0
8.524854583E0,7.634124756E-2,-3.438349915E-1,9.866732025E0,9.873016324E0
8.534885583E0,5.613327026E-2,-3.731739807E-1,9.905052338E0,9.912238475E0
8.544917583E0,5.553451538E-2,-3.977229309E-1,9.927655334E0,9.935774155E0
8.554948583E0,6.271957397E-2,-4.119433594E-1,9.935888214E0,9.944621948E0
8.564980583E0,7.589218140E-2,-4.198768616E-1,9.918674011E0,9.927847216E0
8.575012583E0,6.406677246E-2,-3.992198181E-1,9.903106384E0,9.911356974E0
8.585043583E0,6.406677246E-2,-4.016148376E-1,9.892029419E0,9.900386106E0
8.595075583E0,6.855743408E-2,-3.851490784E-1,9.868528290E0,9.876279185E0
8.605106583E0,6.376739502E-2,-3.779640198E-1,9.848470001E0,9.855926362E0
8.615138583E0,6.571334839E-2,-3.728746033E-1,9.835297394E0,9.842582412E0
8.625169583E0,7.858657837E-2,-3.489244080E-1,9.832153931E0,9.838657175E0
8.635201583E0,9.610015869E-2,-3.279679871E-1,9.818382568E0,9.824328705E0
8.645232583E0,1.026864624E-1,-3.388952637E-1,9.828112335E0,9.834489645E0
8.655264583E0,8.607101440E-2,-3.378474426E-1,9.821376343E0,9.827562382E0
8.665295583E0,1.043330383E-1,-3.432362366E-1,9.819430389E0,9.825981359E0
8.675327583E0,8.038284302E-2,-3.472778320E-1,9.801767120E0,9.808246631E0
8.685358583E0,6.706054688E-2,-3.439846802E-1,9.804611206E0,9.810872718E0
8.695390583E0,6.616241455E-2,-3.757186890E-1,9.836345215E0,9.843740609E0
8.705422583E0,7.589218140E-2,-3.739224243E-1,9.874964905E0,9.882333200E0
8.715453583E0,8.247848511E-2,-3.784130859E-1,9.868827667E0,9.876424388E0
8.725485583E0,7.918533325E-2,-3.784130859E-1,9.856403503E0,9.863982806E0
8.735516583E0,7.349716187E-2,-3.782633972E-1,9.869426422E0,9.876946033E0
8.745548583E0,7.708969116E-2,-3.806584167E-1,9.867929535E0,9.875569703E0
8.755579583E0,7.095245361E-2,-3.707789612E-1,9.855505371E0,9.862732756E0
8.765611583E0,5.673202515E-2,-3.576063538E-1,9.843380585E0,9.850037673E0
8.775642583E0,5.613327026E-2,-3.620970154E-1,9.847122803E0,9.853937928E0
8.785674583E0,6.316864014E-2,-3.626957703E-1,9.841734009E0,9.848617507E0
8.795705583E0,6.646179199E-2,-3.516188049E-1,9.838291168E0,9.844796903E0
8.805737583E0,8.472381592E-2,-3.694317627E-1,9.858050079E0,9.865333716E0
8.815768583E0,8.786727905E-2,-3.625460815E-1,9.852212219E0,9.859272079E0
8.825800583E0,8.816665649E-2,-3.722758484E-1,9.859846344E0,9.867265710E0
8.835832583E0,1.002914429E-1,-3.710783386E-1,9.854906616E0,9.862400414E0
8.845863583E0,1.109193420E-1,-3.623963928E-1,9.861193542E0,9.868473657E0
8.855895583E0,1.044827271E-1,-3.547622681E-1,9.865085449E0,9.872015186E0
8.865926583E0,8.562194824E-2,-3.653901672E-1,9.848320312E0,9.855468232E0
8.875958583E0,8.068222046E-2,-3.724255371E-1,9.859097900E0,9.866459436E0
8.885989583E0,7.559280396E-2,-3.676354980E-1,9.839039612E0,9.846195743E0
8.896021583E0,6.346801758E-2,-3.731739807E-1,9.831255798E0,9.838540419E0
8.906052583E0,4.550537109E-2,-3.799099731E-1,9.838141479E0,9.845579216E0
8.916084583E0,4.805007935E-2,-3.724255371E-1,9.856553192E0,9.863703687E0
8.926115583E0,6.721023560E-2,-3.897894287E-1,9.897867279E0,9.905767496E0
8.936147583E0,6.721023560E-2,-3.788621521E-1,9.847571869E0,9.855086274E0
8.946178583E0,6.810836792E-2,-3.739224243E-1,9.787397003E0,9.794773955E0
8.956210583E0,4.505630493E-2,-3.619473267E-1,9.767189026E0,9.773997003E0
8.966242583E0,1.227447510E-2,-3.504212952E-1,9.802665253E0,9.808934285E0
8.976273583E0,2.080673218E-2,-3.686833191E-1,9.872719574E0,9.879623075E0
8.986305583E0,5.044509888E-2,-3.528163147E-1,9.891280975E0,9.897699904E0
8.996336583E0,7.738906860E-2,-3.610491943E-1,9.837842102E0,9.844769312E0
9.006368583E0,5.658233643E-2,-3.519181824E-1,9.870923309E0,9.877356678E0
9.016399583E0,4.445755005E-2,-3.773652649E-1,9.930948486E0,9.938215074E0
9.026431583E0,6.376739502E-2,-3.821553040E-1,9.967622223E0,9.975149209E0
9.036462583E0,1.076261902E-1,-4.058061218E-1,9.858648834E0,9.867584245E0
9.046494583E0,7.229965210E-2,-3.968247986E-1,9.797725525E0,9.806024812E0
9.056525583E0,2.709365845E-2,-3.806584167E-1,9.742640076E0,9.750111309E0
9.066557583E0,-7.484436035E-4,-3.897894287E-1,9.728569336E0,9.736374977E0
9.076588583E0,2.574645996E-2,-3.947291565E-1,9.753118286E0,9.761136731E0
9.086620583E0,5.388793945E-2,-4.294569397E-1,9.794282684E0,9.803841618E0
9.096652583E0,7.229965210E-2,-4.330494690E-1,9.877359924E0,9.887112731E0
9.106683583E0,9.819580078E-2,-4.305047607E-1,9.923464050E0,9.933283220E0
9.116715583E0,1.219963074E-1,-4.167333984E-1,9.931547241E0,9.941035179E0
9.126746583E0,9.041198730E-2,-4.173321533E-1,9.901310120E0,9.910513737E0
9.136778583E0,4.655319214E-2,-4.092489624E-1,9.852212219E0,9.860818299E0
9.146809583E0,1.901046753E-2,-3.814068604E-1,9.814939728E0,9.822366031E0
9.156841583E0,-1.571731567E-2,-3.526666260E-1,9.811796265E0,9.818144770E0
9.166872583E0,-6.586303711E-3,-3.418890381E-1,9.834698639E0,9.840641687E0
9.176904583E0,-3.592529297E-3,-3.305126953E-1,9.876162415E0,9.881691939E0
9.186935583E0,6.735992432E-3,-3.192860413E-1,9.887688446E0,9.892844472E0
9.196967583E0,2.155517578E-2,-3.100053406E-1,9.913285217E0,9.918154654E0
9.206998583E0,7.035369873E-3,-3.252735901E-1,9.921368408E0,9.926701542E0
9.217030583E0,3.128494263E-2,-3.451821899E-1,9.905651093E0,9.911712923E0
9.227062583E0,4.505630493E-2,-3.640429688E-1,9.882898407E0,9.889703650E0
9.237093958E0,4.266128540E-2,-4.037104797E-1,9.870623932E0,9.878968516E0
9.247125958E0,6.541397095E-2,-4.275109863E-1,9.844278717E0,9.853774307E0
9.257156958E0,4.400848389E-2,-4.370910645E-1,9.834249573E0,9.844056583E0
9.267188958E0,4.071533203E-2,-4.484674072E-1,9.818831635E0,9.829152325E0
9.277219958E0,5.822891235E-2,-4.581971741E-1,9.831405487E0,9.842249189E0
9.287251958E0,5.957611084E-2,-4.439767456E-1,9.877958679E0,9.888110655E0
9.297282958E0,6.571334839E-2,-4.472698975E-1,9.891730042E0,9.902054929E0
9.307314958E0,7.095245361E-2,-4.204756165E-1,9.911638641E0,9.920807152E0
9.317345958E0,6.975494385E-2,-4.016148376E-1,9.912387085E0,9.920764988E0
9.327377958E0,4.730163574E-2,-3.829037476E-1,9.833950195E0,9.841515593E0
9.337408958E0,1.586700439E-2,-3.613485718E-1,9.826316071E0,9.832970664E0
9.347440958E0,3.742218018E-3,-3.370989990E-1,9.914033661E0,9.919763766E0
9.357472958E0,-2.544708252E-2,-3.245251465E-1,9.810000000E0,9.815399336E0
9.367503958E0,-4.700225830E-2,-3.327580261E-1,9.815837860E0,9.821588976E0
9.377535958E0,-5.164260864E-2,-3.378474426E-1,9.869875488E0,9.875791108E0
9.387566958E0,2.260299683E-2,-3.456312561E-1,9.885293427E0,9.891359764E0
9.397598958E0,6.017486572E-2,-3.583547974E-1,9.869426422E0,9.876113460E0
9.407629958E0,5.643264771E-2,-3.748205566E-1,9.863438873E0,9.870719401E0
9.417661958E0,6.706054688E-2,-3.653901672E-1,9.849667511E0,9.856670694E0
9.427692958E0,7.664062500E-2,-3.963757324E-1,9.847272491E0,9.855544786E0
9.437724958E0,7.963439941E-2,-4.065545654E-1,9.845176849E0,9.853889356E0
9.447755958E0,1.085243225E-1,-3.935316467E-1,9.862391052E0,9.870835930E0
9.457787958E0,9.894424438E-2,-3.876937866E-1,9.896969147E0,9.905053999E0
9.467818958E0,9.624984741E-2,-3.778143311E-1,9.900262299E0,9.907936278E0
9.477850958E0,1.070274353E-1,-3.739224243E-1,9.905501404E0,9.913134263E0
9.487882958E0,9.535171509E-2,-3.761677551E-1,9.884395294E0,9.892010132E0
9.497913958E0,9.145980835E-2,-3.769161987E-1,9.856702881E0,9.864330814E0
9.507945958E0,8.397537231E-2,-3.815565491E-1,9.849218445E0,9.856964098E0
9.517976958E0,8.158035278E-2,-3.763174438E-1,9.843230896E0,9.850759597E0
9.528008958E0,7.110214233E-2,-3.613485718E-1,9.843530273E0,9.850417075E0
9.538039958E0,8.158035278E-2,-3.779640198E-1,9.831854553E0,9.839455072E0
9.548071958E0,8.038284302E-2,-3.808081055E-1,9.829459534E0,9.837161732E0
9.558102958E0,7.798782349E-2,-3.815565491E-1,9.841284943E0,9.848987604E0
9.568134958E0,7.214996338E-2,-3.767665100E-1,9.821376343E0,9.828865239E0
9.578165958E0,6.047424316E-2,-3.923341370E-1,9.804012451E0,9.812045829E0
9.588197958E0,7.110214233E-2,-3.845503235E-1,9.814490662E0,9.822278830E0
9.598228958E0,7.304809570E-2,-3.860472107E-1,9.848170624E0,9.856004926E0
9.608260958E0,7.529342651E-2,-3.830534363E-1,9.868977356E0,9.876695454E0
9.618292958E0,8.547225952E-2,-3.906875610E-1,9.872120819E0,9.880218203E0
9.628323958E0,8.427474976E-2,-4.064048767E-1,9.894574127E0,9.903275434E0
9.638355958E0,8.382568359E-2,-4.001179504E-1,9.889185333E0,9.897631417E0
9.648386958E0,6.721023560E-2,-3.987707520E-1,9.877359924E0,9.885634750E0
9.658418958E0,5.972579956E-2,-3.903881836E-1,9.874964905E0,9.882858998E0
9.668449958E0,7.529342651E-2,-3.881428528E-1,9.872120819E0,9.880035093E0
9.678481958E0,8.367599487E-2,-3.817062378E-1,9.855505371E0,9.863249335E0
9.688512958E0,8.442443848E-2,-3.793112183E-1,9.852511597E0,9.860171867E0
9.698544958E0,9.774673462E-2,-3.879931641E-1,9.834548950E0,9.842684907E0
9.708575958E0,1.225950623E-1,-3.826043701E-1,9.846524048E0,9.854717220E0
9.718607958E0,1.386117554E-1,-3.821553040E-1,9.845176849E0,9.853566009E0
9.728638958E0,1.444496155E-1,-4.019142151E-1,9.856553192E0,9.865801618E0
9.738670958E0,1.447489929E-1,-4.119433594E-1,9.868827667E0,9.878482127E0
9.748702958E0,1.441502380E-1,-3.944297791E-1,9.864786072E0,9.873720595E0
9.758733958E0,1.414558411E-1,-3.839515686E-1,9.861043854E0,9.869529596E0
9.768765958E0,1.240919495E-1,-3.806584167E-1,9.834848328E0,9.842994528E0
9.778796958E0,1.278341675E-1,-3.852987671E-1,9.821076965E0,9.829463336E0
9.788828958E0,9.355545044E-2,-3.945794678E-1,9.811796265E0,9.820172683E0
9.798859958E0,8.696914673E-2,-4.113446045E-1,9.822723541E0,9.831717336E0
9.808891958E0,8.143066406E-2,-4.071533203E-1,9.870923309E0,9.879652411E0
9.818922958E0,8.307723999E-2,-4.004173279E-1,9.916428680E0,9.924857361E0
9.828954958E0,1.011895752E-1,-3.790118408E-1,9.889185333E0,9.896962961E0
9.838985958E0,1.056802368E-1,-3.861968994E-1,9.842781830E0,9.850922318E0
9.849017958E0,8.562194824E-2,-3.767665100E-1,9.820927277E0,9.828524645E0
9.859049958E0,6.586303711E-2,-3.650907898E-1,9.834099884E0,9.841094947E0
9.869080958E0,7.963439941E-2,-3.861968994E-1,9.863887939E0,9.871766557E0
9.879112958E0,1.034349060E-1,-3.887416077E-1,9.876312103E0,9.884500978E0
9.889143958E0,1.032852173E-1,-3.812571716E-1,9.850116577E0,9.858033346E0
9.899175958E0,9.654922485E-2,-3.737727356E-1,9.861792297E0,9.869345223E0
9.909206958E0,1.101708984E-1,-3.841012573E-1,9.897567902E0,9.905630811E0
9.919238958E0,1.237925720E-1,-3.888912964E-1,9.899064789E0,9.907474185E0
9.929269958E0,1.793270874E-1,-4.028123474E-1,9.836644592E0,9.846521864E0
9.939301958E0,1.630110168E-1,-4.270619202E-1,9.804461517E0,9.815111824E0
9.949332958E0,9.654922485E-2,-4.176315308E-1,9.776469727E0,9.785862157E0
9.959364958E0,6.556365967E-2,-4.161346436E-1,9.802066498E0,9.811114833E0
9.969395958E0,8.472381592E-2,-4.309538269E-1,9.772278442E0,9.782143184E0
9.979427958E0,1.010398865E-1,-4.320016479E-1,9.810598755E0,9.820625357E0
9.989458958E0,9.580078125E-2,-4.412823486E-1,9.885443115E0,9.895751285E0
9.999490958E0,1.369651794E-1,-4.128414917E-1,9.904004517E0,9.913551484E0
1.000952296E1,1.645079041E-1,-4.017645264E-1,9.871222687E0,9.880764895E0
1.001955396E1,1.398092651E-1,-3.838018799E-1,9.834249573E0,9.842729051E0
1.002958596E1,1.276844788E-1,-3.580554199E-1,9.792785797E0,9.800161258E0
1.003961696E1,9.280700684E-2,-3.421884155E-1,9.772278442E0,9.778708095E0
1.004964896E1,6.301895142E-2,-3.379971313E-1,9.810598755E0,9.816621689E0
1.005967996E1,6.840774536E-2,-3.357518005E-1,9.854756927E0,9.860712094E0
1.006971196E1,6.780899048E-2,-3.432362366E-1,9.923613739E0,9.929779394E0
1.007974296E1,7.888595581E-2,-3.541635132E-1,9.964478760E0,9.971082777E0
1.008977496E1,9.684860229E-2,-3.592529297E-1,9.939630432E0,9.946592152E0
1.009980596E1,9.101074219E-2,-3.897894287E-1,9.913883972E0,9.921961206E0
1.010983796E1,9.849517822E-2,-4.059558105E-1,9.873018951E0,9.881852288E0
1.011986896E1,8.622070312E-2,-4.224215698E-1,9.841734009E0,9.851172635E0
1.012990096E1,1.115180969E-1,-4.406835938E-1,9.815538483E0,9.826058926E0
1.013993296E1,1.076261902E-1,-4.400848389E-1,9.824220428E0,9.834661412E0
1.014996396E1,1.061293030E-1,-4.266128540E-1,9.831405487E0,9.841229385E0
1.015999596E1,1.065783691E-1,-4.314028931E-1,9.829309845E0,9.839349543E0
1.017002696E1,1.158590698E-1,-4.492158508E-1,9.872270508E0,9.883164634E0
1.018005896E1,1.266366577E-1,-4.303550720E-1,9.884395294E0,9.894569857E0
1.019008996E1,1.264869690E-1,-4.360432434E-1,9.906549225E0,9.916947626E0
1.020012196E1,1.191522217E-1,-4.309538269E-1,9.927355957E0,9.937419924E0
1.021015296E1,1.103205872E-1,-4.203259277E-1,9.874066772E0,9.883624798E0
1.022018496E1,9.460327148E-2,-3.947291565E-1,9.809251556E0,9.817646204E0
1.023021521E1,6.840774536E-2,-3.776646423E-1,9.898915100E0,9.906353030E0
1.024024721E1,7.319778442E-2,-3.574566650E-1,9.862540741E0,9.869287869E0
1.025027821E1,5.897735596E-2,-3.582051086E-1,9.775721283E0,9.782459600E0
1.026031021E1,3.353027344E-2,-3.412902832E-1,9.771380310E0,9.777396202E0
1.027034121E1,5.014572144E-2,-3.544628906E-1,9.837991791E0,9.844503086E0
1.028037321E1,1.041833496E-1,-3.649411011E-1,9.865684204E0,9.872981363E0
1.029040521E1,1.423539734E-1,-3.761677551E-1,9.881551208E0,9.889733117E0
1.030043621E1,1.429527283E-1,-3.989204407E-1,9.882599030E0,9.891680170E0
1.031046821E1,1.377136230E-1,-3.969744873E-1,9.888586578E0,9.897509702E0
1.032049921E1,1.555265808E-1,-4.170327759E-1,9.883347473E0,9.893364550E0
1.033053121E1,1.510359192E-1,-4.186793518E-1,9.870174866E0,9.880205268E0
1.034056221E1,1.607656860E-1,-4.165837097E-1,9.852361908E0,9.862475488E0
1.035059421E1,1.574725342E-1,-4.131408691E-1,9.852212219E0,9.862127995E0
1.036062521E1,1.460961914E-1,-4.167333984E-1,9.831405487E0,9.841318239E0
1.037065721E1,1.459465027E-1,-4.073030090E-1,9.812395020E0,9.821929146E0
1.038068821E1,1.447489929E-1,-4.095483398E-1,9.822274475E0,9.831874591E0
1.039072021E1,1.333726501E-1,-4.053570557E-1,9.865235138E0,9.874460336E0
1.040075121E1,1.453477478E-1,-4.005670166E-1,9.860145721E0,9.869349196E0
1.041078321E1,1.499880981E-1,-3.956272888E-1,9.840686188E0,9.849777765E0
1.042081521E1,1.435514832E-1,-4.068539429E-1,9.813891907E0,9.823370680E0
1.043084621E1,1.173559570E-1,-4.111949158E-1,9.824968872E0,9.834270030E0
1.044087821E1,1.025367737E-1,-4.141886902E-1,9.825417938E0,9.834678628E0
1.045090921E1,1.128652954E-1,-4.135899353E-1,9.816586304E0,9.825943307E0
1.046094121E1,1.224453735E-1,-4.155358887E-1,9.829908600E0,9.839449478E0
1.047097221E1,1.260379028E-1,-4.023632813E-1,9.834848328E0,9.843882536E0
1.048100421E1,1.309776306E-1,-4.002676392E-1,9.843530273E0,9.852535591E0
1.049103521E1,1.306782532E-1,-4.073030090E-1,9.845925293E0,9.855212703E0
1.050106721E1,1.324745178E-1,-3.965254211E-1,9.848919067E0,9.857788226E0
1.051109821E1,1.335223389E-1,-3.888912964E-1,9.843829651E0,9.852413250E0
1.052113021E1,1.246907043E-1,-3.933819580E-1,9.852661285E0,9.861299688E0
1.053116121E1,1.212478638E-1,-4.032614136E-1,9.865983582E0,9.874965967E0
1.054119321E1,1.137634277E-1,-4.025129700E-1,9.863588562E0,9.872453501E0
1.055122521E1,1.233435059E-1,-4.140390015E-1,9.844129028E0,9.853604327E0
1.056125621E1,1.044827271E-1,-4.055067444E-1,9.854457550E0,9.863350646E0
1.057128821E1,1.107696533E-1,-4.050576782E-1,9.848320312E0,9.857269126E0
1.058131921E1,1.166075134E-1,-4.092489624E-1,9.854158173E0,9.863341995E0
1.059135121E1,1.339714050E-1,-4.026626587E-1,9.864486694E0,9.873610449E0
1.060138221E1,1.508862305E-1,-4.023632813E-1,9.853559418E0,9.862925330E0
1.061141421E1,1.528321838E-1,-3.947291565E-1,9.849218445E0,9.858309833E0
1.062144521E1,1.466949463E-1,-4.179309082E-1,9.843530273E0,9.853490442E0
1.063147721E1,1.691482544E-1,-4.032614136E-1,9.859097900E0,9.868791330E0
1.064150821E1,1.631607056E-1,-3.981719971E-1,9.855355682E0,9.864745206E0
1.065154021E1,1.706451416E-1,-3.963757324E-1,9.847272491E0,9.856724050E0
1.066157121E1,1.678010559E-1,-3.897894287E-1,9.857451324E0,9.866581962E0
1.067160321E1,1.610650635E-1,-3.894900513E-1,9.838740234E0,9.847763901E0
1.068163421E1,1.469943237E-1,-3.832031250E-1,9.838291168E0,9.846848485E0
1.069166621E1,1.227447510E-1,-3.882925415E-1,9.838889923E0,9.847313963E0
1.070169821E1,1.197509766E-1,-3.836521912E-1,9.823771362E0,9.831989274E0
1.071172921E1,1.243913269E-1,-3.944297791E-1,9.833501129E0,9.842194497E0
1.072176121E1,1.103205872E-1,-3.954776001E-1,9.868827667E0,9.877364663E0
1.073179221E1,1.185534668E-1,-3.986210632E-1,9.898615723E0,9.907348127E0
1.074182421E1,1.239422607E-1,-3.977229309E-1,9.848170624E0,9.856977724E0
1.075185521E1,1.080752563E-1,-3.866459656E-1,9.807604980E0,9.815818398E0
1.076188721E1,9.729766846E-2,-4.128414917E-1,9.793085175E0,9.802266175E0
1.077191821E1,8.202941895E-2,-3.890409851E-1,9.802515564E0,9.810575574E0
1.078195021E1,8.217910767E-2,-3.960763550E-1,9.843979340E0,9.852287000E0
1.079198121E1,1.127156067E-1,-3.917353821E-1,9.879156189E0,9.887562309E0
1.080201321E1,1.275347900E-1,-3.855981445E-1,9.847721558E0,9.856093086E0
1.081204421E1,1.182540894E-1,-3.993695068E-1,9.826465759E0,9.835288982E0
1.082207621E1,1.185534668E-1,-4.162843323E-1,9.906549225E0,9.916000460E0
1.083210821E1,1.469943237E-1,-4.082011414E-1,9.909842377E0,9.919335231E0
1.084213921E1,2.013313293E-1,-4.306544495E-1,9.797725525E0,9.809251909E0
1.085217121E1,1.669029236E-1,-4.378395081E-1,9.768835602E0,9.780066924E0
1.086220221E1,9.924362183E-2,-4.192781067E-1,9.756710815E0,9.766219809E0
1.087223421E1,7.304809570E-2,-4.101470947E-1,9.743238831E0,9.752141281E0
1.088226521E1,8.083190918E-2,-4.146377563E-1,9.753267975E0,9.762412328E0
1.089229721E1,9.774673462E-2,-4.137396240E-1,9.820777588E0,9.829974941E0
1.090232821E1,1.065783691E-1,-4.016148376E-1,9.876761169E0,9.885497692E0
1.091236021E1,1.203497314E-1,-3.944297791E-1,9.891580353E0,9.900172765E0
1.092239121E1,1.451980591E-1,-3.652404785E-1,9.870174866E0,9.877997518E0
1.093242321E1,1.134640503E-1,-3.339555359E-1,9.826166382E0,9.832494401E0
1.094245421E1,9.041198730E-2,-3.317102051E-1,9.808652802E0,9.814676549E0
1.095248621E1,8.083190918E-2,-3.290158081E-1,9.804012451E0,9.809864695E0
1.096251721E1,6.945556641E-2,-3.079096985E-1,9.829609222E0,9.834675893E0
1.097254921E1,7.439529419E-2,-3.192860413E-1,9.885592804E0,9.891027415E0
1.098258121E1,8.756790161E-2,-3.354524231E-1,9.935738525E0,9.941785378E0
1.099261221E1,1.068777466E-1,-3.616479492E-1,9.950557709E0,9.957701080E0
1.100264421E1,9.774673462E-2,-3.963757324E-1,9.913285217E0,9.921687958E0
1.101267521E1,1.032852173E-1,-4.173321533E-1,9.866133270E0,9.875495920E0
1.102270721E1,9.101074219E-2,-4.114942932E-1,9.857900391E0,9.866904815E0
1.103273821E1,9.789642334E-2,-4.194277954E-1,9.830207977E0,9.839638828E0
1.104277021E1,1.119671631E-1,-4.197271729E-1,9.810299377E0,9.819912496E0
1.105280121E1,1.089733887E-1,-4.101470947E-1,9.810898132E0,9.820072199E0
1.106283321E1,1.181044006E-1,-4.242178345E-1,9.821675720E0,9.831542268E0
1.107286421E1,1.128652954E-1,-4.248165894E-1,9.851164398E0,9.860965861E0
1.108289621E1,1.224453735E-1,-4.218228149E-1,9.869426422E0,9.879195577E0
1.109292721E1,1.187031555E-1,-4.119433594E-1,9.874964905E0,9.884266267E0
1.110295921E1,9.909393311E-2,-3.806584167E-1,9.902807007E0,9.910615877E0
1.111299021E1,1.038839722E-1,-3.704795837E-1,9.850715332E0,9.858226999E0
1.112302221E1,8.187973022E-2,-3.635939026E-1,9.751771088E0,9.758890519E0
1.113305421E1,7.424560547E-2,-3.424877930E-1,9.859696655E0,9.865922584E0
1.114308521E1,8.277786255E-2,-3.282673645E-1,9.872120819E0,9.877923927E0
1.115311721E1,8.262817383E-2,-3.132984924E-1,9.809550934E0,9.814900554E0
1.116314821E1,3.682342529E-2,-3.233276367E-1,9.846823425E0,9.852199160E0
1.117318021E1,6.900650024E-2,-3.394940186E-1,9.817484436E0,9.823595001E0
1.118321121E1,8.786727905E-2,-3.511697388E-1,9.849218445E0,9.855868547E0
1.119324321E1,1.058299255E-1,-3.595523071E-1,9.915680237E0,9.922761329E0
1.120327421E1,1.466949463E-1,-3.764671326E-1,9.904603271E0,9.912840807E0
1.121330621E1,1.422042847E-1,-3.808081055E-1,9.911638641E0,9.919970636E0
1.122333721E1,1.142124939E-1,-4.007167053E-1,9.906698914E0,9.915457717E0
1.123336996E1,1.184037781E-1,-3.941304016E-1,9.893376617E0,9.901932090E0
1.124340096E1,1.275347900E-1,-3.995191956E-1,9.889933777E0,9.898821689E0
1.125343296E1,1.209484863E-1,-4.082011414E-1,9.861792297E0,9.870977866E0
1.126346496E1,1.113684082E-1,-4.113446045E-1,9.840237122E0,9.849460590E0
1.127349596E1,1.058299255E-1,-4.052073669E-1,9.839488678E0,9.848397353E0
1.128352796E1,1.231938171E-1,-4.105961609E-1,9.832303619E0,9.841644191E0
1.129355896E1,1.393601990E-1,-3.891906738E-1,9.843679962E0,9.852356360E0
1.130359096E1,1.501377869E-1,-3.948788452E-1,9.841883698E0,9.850946420E0
1.131362196E1,1.513352966E-1,-4.007167053E-1,9.820627899E0,9.829964831E0
1.132365396E1,1.197509766E-1,-3.860472107E-1,9.792336731E0,9.800675048E0
1.133368496E1,1.115180969E-1,-3.827540588E-1,9.805060272E0,9.813161769E0
1.134371696E1,1.043330383E-1,-3.770658875E-1,9.799821167E0,9.807627591E0
1.135374796E1,8.053253174E-2,-3.818559265E-1,9.787546692E0,9.795323868E0
1.136377996E1,6.765930176E-2,-3.833528137E-1,9.810000000E0,9.817720568E0
1.137381096E1,8.322692871E-2,-3.719764709E-1,9.856253815E0,9.863621671E0
1.138384296E1,9.684860229E-2,-3.891906738E-1,9.865833893E0,9.873982349E0
1.139387396E1,1.175056458E-1,-3.903881836E-1,9.867031403E0,9.875450329E0
1.140390596E1,1.028361511E-1,-4.022135925E-1,9.857601013E0,9.866339178E0
1.141393796E1,1.046324158E-1,-3.972738647E-1,9.873767395E0,9.882310309E0
1.142396896E1,9.714797974E-2,-3.924838257E-1,9.868378601E0,9.876658215E0
1.143400096E1,1.040336609E-1,-3.712280273E-1,9.844578094E0,9.852124193E0
1.144403196E1,8.981323242E-2,-3.793112183E-1,9.857151947E0,9.864856204E0
1.145406396E1,8.008346558E-2,-3.824546814E-1,9.850266266E0,9.858013515E0
1.146409496E1,9.804611206E-2,-3.905378723E-1,9.863438873E0,9.871654333E0
1.147412696E1,9.370513916E-2,-3.833528137E-1,9.871522064E0,9.879407264E0
1.148415796E1,9.954299927E-2,-3.917353821E-1,9.850266266E0,9.858555215E0
1.149418996E1,9.610015869E-2,-3.879931641E-1,9.845476227E0,9.853586965E0
1.150422096E1,1.167572021E-1,-4.177812195E-1,9.853409729E0,9.862953750E0
1.151425296E1,1.444496155E-1,-3.990701294E-1,9.859996033E0,9.869125819E0
1.152428396E1,1.489402771E-1,-4.070036316E-1,9.859996033E0,9.869516550E0
1.153431596E1,1.595681763E-1,-4.233197021E-1,9.867480469E0,9.877845533E0
1.154434696E1,1.501377869E-1,-4.099974060E-1,9.852661285E0,9.862331045E0
1.155437896E1,1.414558411E-1,-4.161346436E-1,9.857451324E0,9.867245026E0
1.156441096E1,1.351689148E-1,-4.122427368E-1,9.834099884E0,9.843664726E0
1.157444196E1,1.128652954E-1,-4.040098572E-1,9.824968872E0,9.833919660E0
1.158447396E1,1.047821045E-1,-4.010160828E-1,9.853858795E0,9.862571994E0
1.159450496E1,1.172062683E-1,-4.080514526E-1,9.885443115E0,9.894555517E0
1.160453696E1,1.142124939E-1,-4.102967834E-1,9.879455566E0,9.888631363E0
1.161456796E1,1.103205872E-1,-3.811074829E-1,9.827812958E0,9.835818272E0
1.162459996E1,1.029858398E-1,-3.736230469E-1,9.798324280E0,9.805985874E0
1.163463096E1,8.681945801E-2,-3.844006348E-1,9.822873230E0,9.830775145E0
1.164466296E1,6.930587769E-2,-3.808081055E-1,9.866582336E0,9.874171617E0
1.165469396E1,9.041198730E-2,-3.953279114E-1,9.905501404E0,9.913799299E0
1.166472596E1,1.228944397E-1,-3.894900513E-1,9.845326538E0,9.853794202E0
1.167475696E1,1.004411316E-1,-3.852987671E-1,9.830806732E0,9.838867037E0
1.168478896E1,9.325607300E-2,-4.019142151E-1,9.918674011E0,9.927251678E0
1.169481996E1,1.264869690E-1,-4.150868225E-1,9.952353973E0,9.961809355E0
1.170485196E1,1.820214844E-1,-4.303550720E-1,9.832004242E0,9.843101377E0
1.171488396E1,1.520837402E-1,-4.333488464E-1,9.766440582E0,9.777232857E0
1.172491496E1,8.262817383E-2,-4.249662781E-1,9.754016418E0,9.763619208E0
1.173494696E1,5.538482666E-2,-4.273612976E-1,9.760752411E0,9.770260630E0
1.174497796E1,8.023315430E-2,-4.340972900E-1,9.756860504E0,9.766842105E0
1.175500996E1,8.577163696E-2,-4.385879517E-1,9.811796265E0,9.821968342E0
1.176504096E1,1.082249451E-1,-4.396357727E-1,9.895921326E0,9.906273322E0
1.177507296E1,1.378633118E-1,-4.156855774E-1,9.906249847E0,9.915925919E0
1.178510396E1,1.706451416E-1,-4.210743713E-1,9.894125061E0,9.904551182E0
1.179513596E1,1.651066589E-1,-3.980223083E-1,9.850116577E0,9.859537441E0
1.180516696E1,1.315763855E-1,-3.824546814E-1,9.798324280E0,9.806668273E0
1.181519896E1,1.124162292E-1,-3.611988831E-1,9.793384552E0,9.800687885E0
1.182522996E1,7.948471069E-2,-3.418890381E-1,9.805359650E0,9.811640219E0
1.183526196E1,6.855743408E-2,-3.544628906E-1,9.850415955E0,9.857029905E0
1.184529396E1,6.855743408E-2,-3.463796997E-1,9.907447357E0,9.913737547E0
1.185532496E1,8.966354370E-2,-3.632945251E-1,9.939031677E0,9.946073253E0
1.186535696E1,1.079255676E-1,-3.793112183E-1,9.943073273E0,9.950890967E0
1.187538796E1,1.050814819E-1,-3.842509460E-1,9.905950470E0,9.913957112E0
1.188541996E1,1.037342834E-1,-3.999682617E-1,9.899663544E0,9.908283085E0
1.189545096E1,9.535171509E-2,-4.126918030E-1,9.861343231E0,9.870435492E0
1.190548296E1,1.026864624E-1,-4.287084961E-1,9.831704865E0,9.841583004E0
1.191551396E1,8.771759033E-2,-4.233197021E-1,9.809700623E0,9.819221978E0
1.192554596E1,9.954299927E-2,-4.382885742E-1,9.801018677E0,9.811318606E0
1.193557696E1,1.161584473E-1,-4.399351501E-1,9.816286926E0,9.826826789E0
1.194560896E1,9.909393311E-2,-4.291575623E-1,9.852960663E0,9.862800294E0
1.195563996E1,1.145118713E-1,-4.192781067E-1,9.870773621E0,9.880337999E0
1.196567196E1,1.240919495E-1,-4.215234375E-1,9.899813232E0,9.909560175E0
1.197570296E1,1.245410156E-1,-3.957769775E-1,9.910441132E0,9.919122608E0
1.198573496E1,1.032852173E-1,-3.909869385E-1,9.901010742E0,9.909265984E0
1.199576696E1,9.355545044E-2,-3.903881836E-1,9.782457275E0,9.790690778E0
1.200579796E1,6.691085815E-2,-3.736230469E-1,9.768985291E0,9.776356420E0
1.201582996E1,5.269042969E-2,-3.731739807E-1,9.879904633E0,9.887090100E0
1.202586096E1,6.511459351E-2,-3.608995056E-1,9.815538483E0,9.822386882E0
1.203589296E1,4.550537109E-2,-3.592529297E-1,9.756860504E0,9.763578253E0
1.204592396E1,1.152603149E-2,-3.604504395E-1,9.815388794E0,9.822011736E0
1.205595596E1,4.730163574E-2,-3.775149536E-1,9.882898407E0,9.890219204E0
1.206598696E1,1.020877075E-1,-4.055067444E-1,9.866582336E0,9.875439465E0
1.207601896E1,1.236428833E-1,-4.282594299E-1,9.851763153E0,9.861842167E0
1.208604996E1,1.076261902E-1,-4.291575623E-1,9.875413971E0,9.885320466E0
1.209608196E1,8.532257080E-2,-4.490661621E-1,9.906549225E0,9.917089185E0
1.210611296E1,1.008901978E-1,-4.599934387E-1,9.901609497E0,9.912801997E0
1.211614496E1,1.077758789E-1,-4.546046448E-1,9.898765411E0,9.909784947E0
1.212617596E1,1.025367737E-1,-4.397854614E-1,9.865833893E0,9.876163397E0
1.213620796E1,8.577163696E-2,-4.444258118E-1,9.855954437E0,9.866342227E0
1.214623996E1,7.544311523E-2,-4.266128540E-1,9.852511597E0,9.862031989E0
1.215627096E1,8.173004150E-2,-4.070036316E-1,9.844727783E0,9.853476386E0
1.216630296E1,8.457412720E-2,-3.963757324E-1,9.855655060E0,9.863985156E0
1.217633396E1,8.382568359E-2,-3.923341370E-1,9.875563660E0,9.883709345E0
1.218636596E1,8.876541138E-2,-3.933819580E-1,9.878407745E0,9.886635841E0
1.219639696E1,9.325607300E-2,-3.769161987E-1,9.863139496E0,9.870779262E0
1.220642896E1,7.619155884E-2,-3.881428528E-1,9.851164398E0,9.859102395E0
1.221645996E1,5.194198608E-2,-3.896397400E-1,9.822424164E0,9.830286545E0
1.222649196E1,5.074447632E-2,-3.849993896E-1,9.806557159E0,9.814242857E0
1.223652258E1,3.622467041E-2,-3.811074829E-1,9.804311829E0,9.811782997E0
1.224655458E1,3.517684937E-2,-3.959266663E-1,9.806856537E0,9.814908582E0
1.225658558E1,5.912704468E-2,-4.017645264E-1,9.838440857E0,9.846818229E0
1.226661758E1,6.376739502E-2,-4.082011414E-1,9.853110352E0,9.861768505E0
1.227664858E1,5.748046875E-2,-4.079017639E-1,9.864786072E0,9.873383012E0
1.228668058E1,5.897735596E-2,-4.225712585E-1,9.849218445E0,9.858455699E0
1.229671258E1,5.792953491E-2,-4.242178345E-1,9.865235138E0,9.874521808E0
1.230674358E1,4.805007935E-2,-4.254153442E-1,9.855205994E0,9.864500606E0
1.231677558E1,2.454895020E-2,-4.254153442E-1,9.854906616E0,9.864115028E0
1.232680658E1,4.146377563E-2,-4.029620361E-1,9.841734009E0,9.850067307E0
1.233683858E1,4.086502075E-2,-4.038601685E-1,9.841135254E0,9.849503341E0
1.234686958E1,5.059478760E-2,-3.948788452E-1,9.843979340E0,9.852026105E0
1.235690158E1,6.107299805E-2,-3.852987671E-1,9.862241364E0,9.869953889E0
1.236693258E1,7.319778442E-2,-3.770658875E-1,9.854158173E0,9.861641339E0
1.237696458E1,7.499404907E-2,-3.785627747E-1,9.847272491E0,9.854831780E0
1.238699558E1,6.795867920E-2,-3.797602844E-1,9.838740234E0,9.846301115E0
1.239702758E1,6.571334839E-2,-3.745211792E-1,9.854008484E0,9.861342077E0
1.240705858E1,6.960525513E-2,-3.766168213E-1,9.873617706E0,9.881043049E0
1.241709058E1,7.140151978E-2,-3.791615295E-1,9.862840118E0,9.870383825E0
1.242712258E1,5.733078003E-2,-3.993695068E-1,9.841284943E0,9.849551875E0
1.243715358E1,5.508544922E-2,-3.941304016E-1,9.832752686E0,9.840802739E0
1.244718558E1,4.745132446E-2,-4.047583008E-1,9.833800507E0,9.842241275E0
1.245721658E1,3.936813354E-2,-3.999682617E-1,9.902657318E0,9.910809574E0
1.246724858E1,5.194198608E-2,-3.957769775E-1,9.898765411E0,9.906810489E0
1.247727958E1,6.661148071E-2,-3.872447205E-1,9.851314087E0,9.859147265E0
1.248731158E1,4.849914551E-2,-3.821553040E-1,9.788893890E0,9.796470714E0
1.249734258E1,2.065704346E-2,-3.686833191E-1,9.780661011E0,9.787629126E0
1.250737458E1,-5.239105225E-3,-3.594026184E-1,9.808353424E0,9.814937319E0
1.251740558E1,-1.197509766E-3,-3.790118408E-1,9.866582336E0,9.873859347E0
1.252743758E1,3.652404785E-2,-3.842509460E-1,9.850116577E0,9.857676165E0
1.253746858E1,5.284011841E-2,-3.849993896E-1,9.808054047E0,9.815749630E0
1.254750058E1,2.335144043E-2,-3.841012573E-1,9.842332764E0,9.849852450E0
1.255753158E1,2.664459229E-2,-4.008663940E-1,9.950707397E0,9.958814262E0
1.256756358E1,6.511459351E-2,-4.105961609E-1,9.937983856E0,9.946675437E0
1.257759558E1,8.472381592E-2,-4.110452271E-1,9.858199768E0,9.867129216E0
1.258762658E1,4.116439819E-2,-4.056564331E-1,9.771829376E0,9.780332357E0
1.259765858E1,-6.885681152E-3,-4.052073669E-1,9.744286652E0,9.752710535E0
1.260768958E1,-3.547622681E-2,-4.071533203E-1,9.754914551E0,9.763472245E0
1.261772158E1,-1.616638184E-2,-4.146377563E-1,9.788145447E0,9.796937129E0
1.262775258E1,1.571731567E-2,-4.216731262E-1,9.833650818E0,9.842700019E0
1.263778458E1,5.313949585E-2,-4.320016479E-1,9.900112610E0,9.909676025E0
1.264781558E1,8.532257080E-2,-4.210743713E-1,9.950857086E0,9.960127525E0
1.265784758E1,8.921447754E-2,-4.135899353E-1,9.936936035E0,9.945939555E0
1.266787858E1,8.143066406E-2,-4.034111023E-1,9.894873505E0,9.903428353E0
1.267791058E1,5.059478760E-2,-3.841012573E-1,9.848769379E0,9.856386350E0
1.268794158E1,1.122665405E-2,-3.835025024E-1,9.828561401E0,9.836046941E0
1.269797358E1,-5.388793945E-3,-3.580554199E-1,9.817783813E0,9.824312278E0
1.270800458E1,-7.783813477E-3,-3.504212952E-1,9.829459534E0,9.835706909E0
1.271803658E1,-2.514770508E-2,-3.372486877E-1,9.860594788E0,9.866392383E0
1.272806758E1,-5.688171387E-3,-3.411405945E-1,9.873917084E0,9.879810111E0
1.273809958E1,4.340972900E-3,-3.597019958E-1,9.901609497E0,9.908141854E0
1.274813158E1,-5.239105225E-3,-3.667373657E-1,9.893675995E0,9.900472132E0
1.275816258E1,1.960922241E-2,-3.897894287E-1,9.889185333E0,9.896883695E0
1.276819458E1,1.466949463E-2,-3.891906738E-1,9.882299652E0,9.889971233E0
1.277822558E1,5.089416504E-3,-4.221221924E-1,9.871222687E0,9.880245461E0
1.278825758E1,1.766326904E-2,-4.276606750E-1,9.846224670E0,9.855523624E0
1.279828858E1,1.077758789E-2,-4.439767456E-1,9.830357666E0,9.840384309E0
1.280832058E1,1.107696533E-2,-4.607418823E-1,9.838141479E0,9.848930579E0
1.281835158E1,1.601669312E-2,-4.625381470E-1,9.846973114E0,9.857843455E0
1.282838358E1,3.293151855E-2,-4.658312988E-1,9.872270508E0,9.883309580E0
1.283841458E1,2.350112915E-2,-4.543052673E-1,9.898615723E0,9.909063468E0
1.284844658E1,4.685256958E-2,-4.293072510E-1,9.907447357E0,9.916854996E0
1.285847758E1,4.849914551E-2,-4.221221924E-1,9.900411987E0,9.909525560E0
1.286850958E1,1.826202393E-2,-3.963757324E-1,9.802066498E0,9.810094538E0
1.287854058E1,1.392105103E-2,-3.736230469E-1,9.819280701E0,9.826396158E0
1.288857258E1,1.047821045E-3,-3.537144470E-1,9.860894165E0,9.867236125E0
1.289860458E1,-7.634124756E-3,-3.408412170E-1,9.761949921E0,9.767901375E0
1.290863558E1,-4.370910645E-2,-3.417393494E-1,9.814790039E0,9.820834984E0
1.291866758E1,-3.981719971E-2,-3.520678711E-1,9.873917084E0,9.880272049E0
1.292869858E1,3.772155762E-2,-3.817062378E-1,9.873468018E0,9.880915608E0
1.293873058E1,6.331832886E-2,-3.823049927E-1,9.863438873E0,9.871048208E0
1.294876158E1,3.502716064E-2,-3.920347595E-1,9.864636383E0,9.872485458E0
1.295879358E1,2.888992310E-2,-4.252656555E-1,9.843530273E0,9.852754627E0
1.296882458E1,2.350112915E-2,-4.358935547E-1,9.863588562E0,9.873243379E0
1.297885658E1,4.206253052E-2,-4.513114929E-1,9.872270508E0,9.882670504E0
1.298888758E1,4.146377563E-2,-4.323010254E-1,9.854607239E0,9.864171899E0
1.299891958E1,3.637435913E-2,-4.282594299E-1,9.877808990E0,9.887155288E0
1.300895058E1,2.230361938E-2,-4.185296631E-1,9.920170898E0,9.929020857E0
1.301898258E1,2.978805542E-2,-4.059558105E-1,9.903555450E0,9.911916969E0
1.302901358E1,3.308120728E-2,-3.965254211E-1,9.882149963E0,9.890157465E0
1.303904558E1,4.415817261E-2,-3.861968994E-1,9.858798523E0,9.866458651E0
1.304907758E1,2.290237427E-2,-3.725752258E-1,9.858499146E0,9.865563452E0
1.305910858E1,1.631607056E-2,-3.745211792E-1,9.859696655E0,9.866820687E0
1.306914058E1,1.945953369E-2,-3.772155762E-1,9.845027161E0,9.852270300E0
1.307917158E1,3.098556519E-2,-3.661386108E-1,9.844428406E0,9.851283583E0
1.308920358E1,1.496887207E-2,-3.905378723E-1,9.824669495E0,9.832439910E0
1.309923458E1,1.272354126E-2,-3.953279114E-1,9.829908600E0,9.837863037E0
1.310926658E1,2.350112915E-2,-4.102967834E-1,9.824819183E0,9.833410789E0
1.311929758E1,1.856140137E-2,-4.182302856E-1,9.845625916E0,9.854522351E0
1.312932958E1,3.367996216E-2,-4.231700134E-1,9.867031403E0,9.876158965E0
1.313936058E1,3.727249146E-2,-4.248165894E-1,9.876611481E0,9.885813710E0
1.314939258E1,4.805007935E-2,-4.282594299E-1,9.865534515E0,9.874942340E0
1.315942358E1,5.089416504E-2,-4.279600525E-1,9.848320312E0,9.857745838E0
1.316945558E1,4.625381470E-2,-4.201762390E-1,9.848919067E0,9.857986320E0
1.317948658E1,2.350112915E-2,-4.083508301E-1,9.845027161E0,9.853520310E0
1.318951858E1,1.601669312E-2,-4.077520752E-1,9.869127045E0,9.877559765E0
1.319955058E1,2.320175171E-2,-4.138893127E-1,9.877060547E0,9.885755800E0
1.320958158E1,1.227447510E-2,-4.053570557E-1,9.857900391E0,9.866238651E0
1.321961358E1,2.874023438E-2,-3.980223083E-1,9.868378601E0,9.876443893E0
1.322964458E1,3.891906738E-2,-4.049079895E-1,9.874815216E0,9.883189805E0
1.323967646E1,4.326004028E-2,-4.035607910E-1,9.871222687E0,9.879563253E0
1.324970746E1,4.385879517E-2,-4.167333984E-1,9.862091675E0,9.870989946E0
1.325973946E1,4.849914551E-2,-4.105961609E-1,9.879754944E0,9.888402253E0
1.326977046E1,5.748046875E-2,-4.288581848E-1,9.864786072E0,9.874270990E0
1.327980246E1,5.703140259E-2,-4.314028931E-1,9.867181091E0,9.876771928E0
1.328983346E1,6.316864014E-2,-4.360432434E-1,9.855655060E0,9.865498500E0
1.329986546E1,5.373825073E-2,-4.445755005E-1,9.832004242E0,9.842197041E0
1.330989646E1,3.637435913E-2,-4.276606750E-1,9.814340973E0,9.823721570E0
1.331992846E1,2.574645996E-2,-4.396357727E-1,9.837393036E0,9.847245515E0
1.332995946E1,5.029541016E-2,-4.326004028E-1,9.863887939E0,9.873497760E0
1.333999146E1,5.269042969E-2,-4.318519592E-1,9.889933777E0,9.899498094E0
1.335002346E1,7.619155884E-2,-4.282594299E-1,9.856104126E0,9.865698142E0
1.336005446E1,5.957611084E-2,-3.975732422E-1,9.824968872E0,9.833190079E0
1.337008646E1,4.400848389E-2,-4.028123474E-1,9.824070740E0,9.832423935E0
1.338011746E1,2.080673218E-2,-3.930825806E-1,9.847871246E0,9.855735128E0
1.339014946E1,4.475692749E-2,-4.020639038E-1,9.866282959E0,9.874573307E0
1.340018046E1,4.400848389E-2,-4.034111023E-1,9.837243347E0,9.845609881E0
1.341021246E1,3.622467041E-2,-4.040098572E-1,9.833501129E0,9.841863678E0
1.342024346E1,4.535568237E-2,-3.815565491E-1,9.870923309E0,9.878399137E0
1.343027546E1,6.556365967E-2,-3.897894287E-1,9.905202026E0,9.913085371E0
1.344030646E1,8.457412720E-2,-4.093986511E-1,9.905950470E0,9.914767509E0
1.345033846E1,1.270857239E-1,-4.252656555E-1,9.855954437E0,9.865943418E0
1.346036946E1,8.532257080E-2,-4.399351501E-1,9.788145447E0,9.798398551E0
1.347040146E1,3.712280273E-2,-4.360432434E-1,9.766739960E0,9.776539329E0
1.348043246E1,4.340972900E-3,-4.391867065E-1,9.780211945E0,9.790068922E0
1.349046446E1,2.619552612E-2,-4.601431274E-1,9.763147430E0,9.774019933E0
1.350049646E1,6.885681152E-2,-4.644841003E-1,9.801018677E0,9.812260384E0
1.351052746E1,7.065307617E-2,-4.577481079E-1,9.853110352E0,9.863990510E0
1.352055946E1,9.669891357E-2,-4.526586914E-1,9.890831909E0,9.901656752E0
1.353059046E1,1.173559570E-1,-4.291575623E-1,9.896969147E0,9.906964567E0
1.354062246E1,1.134640503E-1,-4.147874451E-1,9.872719574E0,9.882080474E0
1.355065346E1,9.160949707E-2,-3.926335144E-1,9.829309845E0,9.837575179E0
1.356068546E1,4.730163574E-2,-3.707789612E-1,9.815837860E0,9.822952070E0
1.357071646E1,1.945953369E-2,-3.562591553E-1,9.813293152E0,9.819777072E0
1.358074846E1,6.586303711E-3,-3.501219177E-1,9.841584320E0,9.847812481E0
1.359077946E1,8.532257080E-3,-3.526666260E-1,9.868228912E0,9.874532314E0
1.360081146E1,2.454895020E-2,-3.576063538E-1,9.922715607E0,9.929187780E0
1.361084246E1,3.832031250E-2,-3.638932800E-1,9.946216736E0,9.952944997E0
1.362087446E1,4.790039063E-2,-3.866459656E-1,9.915530548E0,9.923181728E0
1.363090546E1,6.945556641E-2,-4.123924255E-1,9.890233154E0,9.899070837E0
1.364093746E1,8.472381592E-2,-4.284091187E-1,9.874366150E0,9.884018381E0
1.365096946E1,7.933502197E-2,-4.267625427E-1,9.843829651E0,9.853395481E0
1.366100046E1,7.080276489E-2,-4.337979126E-1,9.830507355E0,9.840328679E0
1.367103246E1,6.661148071E-2,-4.478686523E-1,9.824669495E0,9.835098073E0
1.368106346E1,7.349716187E-2,-4.454736328E-1,9.808802490E0,9.819188097E0
1.369109546E1,8.247848511E-2,-4.429289246E-1,9.835147705E0,9.845461854E0
1.370112646E1,8.846603394E-2,-4.523593140E-1,9.862241364E0,9.873006629E0
1.371115846E1,1.038839722E-1,-4.466711426E-1,9.878856812E0,9.889495381E0
1.372118946E1,9.639953613E-2,-4.318519592E-1,9.923613739E0,9.933473644E0
1.373122146E1,8.232879639E-2,-4.354444885E-1,9.918674011E0,9.928569085E0
1.374125246E1,9.595046997E-2,-4.266128540E-1,9.814041595E0,9.823778166E0
1.375128446E1,6.002517700E-2,-4.016148376E-1,9.850565643E0,9.858932041E0
1.376131546E1,4.565505981E-2,-3.833528137E-1,9.899513855E0,9.907038827E0
1.377134746E1,5.403762817E-2,-3.751199341E-1,9.789941711E0,9.797274812E0
1.378137846E1,3.487747192E-2,-3.736230469E-1,9.752220154E0,9.759436897E0
1.379141046E1,2.395019531E-2,-3.737727356E-1,9.833501129E0,9.840631287E0
1.380144146E1,7.155120850E-2,-3.842509460E-1,9.877659302E0,9.885389302E0
1.381147346E1,1.143621826E-1,-4.073030090E-1,9.887538757E0,9.896585125E0
1.382150546E1,1.225950623E-1,-4.070036316E-1,9.884095917E0,9.893231706E0
1.383153646E1,1.065783691E-1,-4.203259277E-1,9.872869263E0,9.882387379E0
1.384156846E1,1.106199646E-1,-4.218228149E-1,9.859397278E0,9.869036728E0
1.385159946E1,1.056802368E-1,-4.228706360E-1,9.838440857E0,9.848091510E0
1.386163146E1,1.216969299E-1,-4.293072510E-1,9.828711090E0,9.838835122E0
1.387166246E1,1.248403931E-1,-4.288581848E-1,9.842332764E0,9.852462570E0
1.388169446E1,1.164578247E-1,-4.227209473E-1,9.859397278E0,9.869142319E0
1.389172546E1,1.200503540E-1,-4.221221924E-1,9.854756927E0,9.864523979E0
1.390175746E1,1.237925720E-1,-4.219725037E-1,9.855355682E0,9.865161987E0
1.391178846E1,1.131646729E-1,-4.126918030E-1,9.870025177E0,9.879297433E0
1.392182046E1,1.163081360E-1,-4.077520752E-1,9.866732025E0,9.875838708E0
1.393185146E1,1.145118713E-1,-4.207749939E-1,9.867779846E0,9.877410777E0
1.394188346E1,1.038839722E-1,-4.089495850E-1,9.847422180E0,9.856457540E0
1.395191546E1,1.032852173E-1,-4.174818420E-1,9.824070740E0,9.833479792E0
1.396194646E1,1.017883301E-1,-4.131408691E-1,9.815987549E0,9.825205229E0
1.397197846E1,9.041198730E-2,-4.290078735E-1,9.836794281E0,9.846559999E0
1.398200946E1,1.041833496E-1,-4.243675232E-1,9.833650818E0,9.843354630E0
1.399204146E1,1.085243225E-1,-4.314028931E-1,9.834848328E0,9.844903637E0
1.400207246E1,1.187031555E-1,-4.269122314E-1,9.837692413E0,9.847666552E0
1.401210446E1,1.218466187E-1,-4.276606750E-1,9.829459534E0,9.839512944E0
1.402213546E1,1.227447510E-1,-4.230203247E-1,9.831555176E0,9.841417055E0
1.403216746E1,1.206491089E-1,-4.180805969E-1,9.843679962E0,9.853292992E0
1.404219846E1,1.323248291E-1,-4.254153442E-1,9.843829651E0,9.853906346E0
1.405223046E1,1.255888367E-1,-4.159849548E-1,9.861642609E0,9.871211221E0
1.406226146E1,1.155596924E-1,-4.222718811E-1,9.863139496E0,9.872851072E0
1.407229346E1,1.207987976E-1,-4.224215698E-1,9.875114594E0,9.884883437E0
1.408232446E1,1.143621826E-1,-4.070036316E-1,9.872420197E0,9.881468069E0
1.409235646E1,1.199006653E-1,-4.095483398E-1,9.850565643E0,9.859804740E0
1.410238746E1,1.112187195E-1,-4.008663940E-1,9.845326538E0,9.854111736E0
1.411241946E1,1.178050232E-1,-3.966751099E-1,9.843530273E0,9.852223983E0
1.412245146E1,1.086740112E-1,-3.933819580E-1,9.837542725E0,9.846004584E0
1.413248246E1,1.196012878E-1,-3.981719971E-1,9.848919067E0,9.857690003E0
1.414251446E1,1.278341675E-1,-4.014651489E-1,9.843081207E0,9.852094371E0
1.415254546E1,1.317260742E-1,-4.141886902E-1,9.848170624E0,9.857756777E0
1.416257746E1,1.237925720E-1,-4.231700134E-1,9.873468018E0,9.883307551E0
1.417260846E1,1.333726501E-1,-4.252656555E-1,9.913285217E0,9.923298995E0
1.418264046E1,1.413061523E-1,-4.324507141E-1,9.901459808E0,9.911906345E0
1.419267146E1,1.312770081E-1,-4.207749939E-1,9.833950195E0,9.843823530E0
1.420270346E1,1.107696533E-1,-4.025129700E-1,9.785900116E0,9.794801054E0
1.421273446E1,9.160949707E-2,-3.981719971E-1,9.785750427E0,9.794276117E0
1.422276646E1,8.607101440E-2,-4.040098572E-1,9.833501129E0,9.842173370E0
1.423279783E1,1.079255676E-1,-4.132905579E-1,9.865534515E0,9.874777379E0
1.424282983E1,1.362167358E-1,-3.980223083E-1,9.869426422E0,9.878388262E0
1.425286083E1,1.243913269E-1,-4.016148376E-1,9.862540741E0,9.871498242E0
1.426289283E1,1.182540894E-1,-3.950285339E-1,9.856104126E0,9.864726054E0
1.427292483E1,1.182540894E-1,-4.067042542E-1,9.854008484E0,9.863106791E0
1.428295583E1,1.333726501E-1,-4.282594299E-1,9.855355682E0,9.865557766E0
1.429298783E1,1.685494995E-1,-4.182302856E-1,9.833351440E0,9.843684577E0
1.430301883E1,1.627116394E-1,-4.417314148E-1,9.786199493E0,9.797515106E0
1.431305083E1,9.819580078E-2,-4.381388855E-1,9.748328247E0,9.758663418E0
1.432308183E1,4.580474854E-2,-4.258644104E-1,9.764794006E0,9.774183370E0
1.433311383E1,5.029541016E-2,-4.222718811E-1,9.790241089E0,9.799472626E0
1.434314483E1,7.140151978E-2,-4.284091187E-1,9.823022919E0,9.832619784E0
1.435317683E1,1.025367737E-1,-4.185296631E-1,9.851164398E0,9.860584205E0
1.436320783E1,1.272354126E-1,-4.186793518E-1,9.894274750E0,9.903946389E0
1.437323983E1,1.332229614E-1,-3.942800903E-1,9.877210236E0,9.885974266E0
1.438327083E1,1.353186035E-1,-3.803590393E-1,9.840686188E0,9.848963842E0
1.439330283E1,1.127156067E-1,-3.670367432E-1,9.808203735E0,9.815716036E0
1.440333383E1,8.113128662E-2,-3.538641357E-1,9.780062256E0,9.786798243E0
1.441336583E1,5.613327026E-2,-3.579057312E-1,9.803413696E0,9.810105380E0
1.442339783E1,3.921844482E-2,-3.556604004E-1,9.848170624E0,9.854668794E0
1.443342883E1,6.032455444E-2,-3.472778320E-1,9.879904633E0,9.886190191E0
1.444346083E1,6.496490479E-2,-3.754193115E-1,9.914333038E0,9.921651057E0
1.445349183E1,9.520202637E-2,-3.984713745E-1,9.922416229E0,9.930870389E0
1.446352383E1,1.085243225E-1,-4.204756165E-1,9.889035645E0,9.898565717E0
1.447355483E1,9.864486694E-2,-4.159849548E-1,9.858349457E0,9.867615128E0
1.448358683E1,9.340576172E-2,-4.311035156E-1,9.835147705E0,9.845034548E0
1.449361783E1,8.981323242E-2,-4.213737488E-1,9.818083191E0,9.827531725E0
1.450364983E1,9.160949707E-2,-4.285588074E-1,9.826166382E0,9.835934156E0
1.451368083E1,1.046324158E-1,-4.424798584E-1,9.831555176E0,9.842063480E0
1.452371283E1,1.109193420E-1,-4.406835938E-1,9.864486694E0,9.874948247E0
1.453374383E1,1.127156067E-1,-4.396357727E-1,9.879006500E0,9.889426366E0
1.454377583E1,7.993377686E-2,-4.252656555E-1,9.884994049E0,9.894460452E0
1.455380683E1,9.071136475E-2,-4.017645264E-1,9.897268524E0,9.905835024E0
1.456383883E1,8.217910767E-2,-4.104464722E-1,9.882299652E0,9.891161010E0
1.457386983E1,6.571334839E-2,-3.835025024E-1,9.772428131E0,9.780170959E0
1.458390183E1,4.221221924E-2,-3.611988831E-1,9.791588287E0,9.798339027E0
1.459393383E1,4.745132446E-2,-3.375480652E-1,9.900561676E0,9.906427803E0
1.460396483E1,7.005432129E-2,-3.293151855E-1,9.818083191E0,9.823854317E0
1.461399683E1,4.700225830E-2,-3.191363525E-1,9.819131012E0,9.824428281E0
1.462402783E1,4.266128540E-2,-3.293151855E-1,9.806257782E0,9.811878524E0
1.463405983E1,6.870712280E-2,-3.353027344E-1,9.824819183E0,9.830779246E0
1.464409083E1,9.595046997E-2,-3.540138245E-1,9.864786072E0,9.871602531E0
1.465412283E1,1.149609375E-1,-3.872447205E-1,9.887838135E0,9.896085967E0
1.466415383E1,1.236428833E-1,-4.207749939E-1,9.892029419E0,9.901746572E0
1.467418583E1,1.188528442E-1,-4.411326599E-1,9.938732300E0,9.949227294E0
1.468421683E1,1.252894592E-1,-4.450245667E-1,9.933044128E0,9.943797563E0
1.469424883E1,1.269360352E-1,-4.577481079E-1,9.889784088E0,9.901185555E0
1.470427983E1,1.272354126E-1,-4.531077576E-1,9.871671753E0,9.882884128E0
1.471431183E1,1.100212097E-1,-4.381388855E-1,9.849817200E0,9.860170851E0
1.472434283E1,1.145118713E-1,-4.083508301E-1,9.825417938E0,9.834566642E0
1.473437483E1,1.070274353E-1,-3.956272888E-1,9.813143463E0,9.821698450E0
1.474440683E1,1.163081360E-1,-3.724255371E-1,9.834698639E0,9.842434947E0
1.475443783E1,1.348695374E-1,-3.891906738E-1,9.865085449E0,9.873680676E0
1.476446983E1,1.318757629E-1,-3.796105957E-1,9.847122803E0,9.855319524E0
1.477450083E1,1.386117554E-1,-3.742218018E-1,9.832752686E0,9.840847552E0
1.478453283E1,1.013392639E-1,-3.725752258E-1,9.816286926E0,9.823877593E0
1.479456383E1,6.556365967E-2,-3.826043701E-1,9.801018677E0,9.808702860E0
1.480459583E1,7.888595581E-2,-3.930825806E-1,9.791887665E0,9.800091885E0
1.481462683E1,6.706054688E-2,-4.022135925E-1,9.799821167E0,9.808300964E0
1.482465883E1,6.092330933E-2,-4.008663940E-1,9.824968872E0,9.833332032E0
1.483468983E1,8.816665649E-2,-4.062551880E-1,9.844877472E0,9.853650546E0
1.484472183E1,9.804611206E-2,-4.179309082E-1,9.858349457E0,9.867691386E0
1.485475283E1,1.064286804E-1,-4.143383789E-1,9.856553192E0,9.865832159E0
1.486478483E1,9.819580078E-2,-4.269122314E-1,9.848170624E0,9.857908556E0
1.487481583E1,9.879455566E-2,-4.219725037E-1,9.862241364E0,9.871759006E0
1.488484783E1,9.924362183E-2,-4.155358887E-1,9.847422180E0,9.856685192E0
1.489487983E1,9.175918579E-2,-4.188290405E-1,9.838889923E0,9.848227883E0
1.490491083E1,8.502319336E-2,-4.273612976E-1,9.846224670E0,9.855861549E0
1.491494283E1,9.385482788E-2,-4.182302856E-1,9.848470001E0,9.857793194E0
1.492497383E1,9.131011963E-2,-4.114942932E-1,9.876461792E0,9.885452070E0
1.493500583E1,9.235794067E-2,-4.195774841E-1,9.859097900E0,9.868454117E0
1.494503683E1,1.005908203E-1,-4.198768616E-1,9.866432648E0,9.875875064E0
1.495506883E1,1.164578247E-1,-4.032614136E-1,9.858499146E0,9.867430648E0
1.496509983E1,1.314266968E-1,-4.087998962E-1,9.849068756E0,9.858425112E0
1.497513183E1,1.252894592E-1,-4.170327759E-1,9.823921051E0,9.833566932E0
1.498516283E1,1.122665405E-1,-4.260140991E-1,9.823471985E0,9.833346004E0
1.499519483E1,1.040336609E-1,-4.043092346E-1,9.861642609E0,9.870475363E0
1.500522583E1,1.140628052E-1,-4.221221924E-1,9.898316345E0,9.907969718E0
1.501525783E1,1.119671631E-1,-4.230203247E-1,9.859247589E0,9.868953636E0
1.502528883E1,1.022373962E-1,-4.105961609E-1,9.825867004E0,9.834973517E0
1.503532083E1,7.439529419E-2,-4.052073669E-1,9.797126770E0,9.805785059E0
1.504535183E1,5.269042969E-2,-4.085005188E-1,9.815688171E0,9.824326096E0
1.505538383E1,5.792953491E-2,-4.116439819E-1,9.861343231E0,9.870101161E0
1.506541583E1,8.502319336E-2,-4.276606750E-1,9.888287201E0,9.897896057E0
1.507544683E1,9.999206543E-2,-4.291575623E-1,9.859996033E0,9.869837708E0
1.508547883E1,9.086105347E-2,-4.349954224E-1,9.886490936E0,9.896473098E0
1.509550983E1,9.340576172E-2,-4.430786133E-1,9.940977631E0,9.951285321E0
1.510554183E1,1.070274353E-1,-4.384382629E-1,9.905052338E0,9.915328779E0
1.511557283E1,1.408570862E-1,-4.480183411E-1,9.841284943E0,9.852484482E0
1.512560483E1,1.016386414E-1,-4.516108704E-1,9.797725525E0,9.808654763E0
1.513563583E1,5.029541016E-2,-4.436773682E-1,9.770182800E0,9.780380933E0
1.514566783E1,3.098556519E-2,-4.501139832E-1,9.770482178E0,9.780893859E0
1.515569883E1,2.335144043E-2,-4.543052673E-1,9.761201477E0,9.771795784E0
1.516573083E1,4.999603271E-2,-4.632865906E-1,9.787696381E0,9.798782297E0
1.517576183E1,6.017486572E-2,-4.562512207E-1,9.851613464E0,9.862356414E0
1.518579383E1,8.906478882E-2,-4.580474854E-1,9.896969147E0,9.907963379E0
1.519582483E1,1.181044006E-1,-4.312532043E-1,9.896071014E0,9.906167246E0
1.520585683E1,1.264869690E-1,-4.138893127E-1,9.847571869E0,9.857077408E0
1.521588883E1,1.032852173E-1,-3.854484558E-1,9.822573853E0,9.830676245E0
1.522591983E1,6.990463257E-2,-3.769161987E-1,9.798174591E0,9.805670696E0
1.523595200E1,5.224136353E-2,-3.658392334E-1,9.796827393E0,9.803794901E0
1.524598300E1,3.847000122E-2,-3.652404785E-1,9.836195526E0,9.843049475E0
1.525601500E1,4.939727783E-2,-3.818559265E-1,9.875264282E0,9.882767764E0
1.526604600E1,6.316864014E-2,-3.858975220E-1,9.933343506E0,9.941037188E0
1.527607800E1,7.140151978E-2,-4.119433594E-1,9.946366425E0,9.955149449E0
1.528610900E1,8.397537231E-2,-4.243675232E-1,9.925260315E0,9.934683285E0
1.529614100E1,7.110214233E-2,-4.352947998E-1,9.894574127E0,9.904399741E0
1.530617200E1,7.948471069E-2,-4.445755005E-1,9.843979340E0,9.854333789E0
1.531620400E1,7.484436035E-2,-4.376898193E-1,9.813143463E0,9.823184753E0
1.532623500E1,6.436614990E-2,-4.388873291E-1,9.804012451E0,9.814042247E0
1.533626700E1,5.403762817E-2,-4.567002869E-1,9.807904358E0,9.818680314E0
1.534629800E1,6.077362061E-2,-4.487667847E-1,9.826765137E0,9.837194626E0
1.535633000E1,8.187973022E-2,-4.463717651E-1,9.844428406E0,9.854883190E0
1.536636200E1,7.708969116E-2,-4.547543335E-1,9.860295410E0,9.871077444E0
1.537639300E1,8.711883545E-2,-4.465214539E-1,9.898765411E0,9.909214286E0
1.538642500E1,8.217910767E-2,-4.333488464E-1,9.912686462E0,9.922494522E0
1.539645600E1,5.837860107E-2,-4.303550720E-1,9.916278992E0,9.925784734E0
1.540648800E1,6.795867920E-2,-4.165837097E-1,9.816286926E0,9.825357469E0
1.541651900E1,4.535568237E-2,-3.984713745E-1,9.750274200E0,9.758518512E0
1.542655100E1,1.886077881E-2,-3.849993896E-1,9.885892181E0,9.893404090E0
1.543658200E1,4.745132446E-2,-3.661386108E-1,9.819131012E0,9.826069557E0
1.544661400E1,2.380050659E-2,-3.516188049E-1,9.742939453E0,9.749311331E0
1.545664500E1,3.442840576E-3,-3.498225403E-1,9.791288910E0,9.797536740E0
1.546667700E1,1.017883301E-2,-3.802093506E-1,9.870923309E0,9.878248313E0
1.547670800E1,7.858657837E-2,-4.044589233E-1,9.865384827E0,9.873985044E0
1.548674000E1,1.002914429E-1,-4.285588074E-1,9.869725800E0,9.879534826E0
1.549677100E1,8.891510010E-2,-4.580474854E-1,9.889035645E0,9.900037342E0
1.550680300E1,7.604187012E-2,-4.664300537E-1,9.932744751E0,9.943980976E0
1.551683500E1,8.202941895E-2,-4.866380310E-1,9.918224945E0,9.930495026E0
1.552686600E1,8.711883545E-2,-4.855902100E-1,9.913135529E0,9.925403949E0
1.553689800E1,6.810836792E-2,-4.831951904E-1,9.888736267E0,9.900768723E0
1.554692900E1,5.972579956E-2,-4.743635559E-1,9.876461792E0,9.888027381E0
1.555696100E1,6.406677246E-2,-4.549040222E-1,9.868378601E0,9.879065666E0
1.556699200E1,7.080276489E-2,-4.435276794E-1,9.825567627E0,9.835827826E0
1.557702400E1,6.032455444E-2,-4.433779907E-1,9.844129028E0,9.854293451E0
1.558705500E1,7.125183105E-2,-4.381388855E-1,9.850715332E0,9.860711691E0
1.559708700E1,8.023315430E-2,-4.266128540E-1,9.842632141E0,9.852199924E0
1.560711800E1,8.936416626E-2,-4.183799744E-1,9.839937744E0,9.849233603E0
1.561715000E1,8.562194824E-2,-3.977229309E-1,9.836045837E0,9.844455920E0
1.562718100E1,6.197113037E-2,-4.001179504E-1,9.807006226E0,9.815360712E0
1.563721300E1,4.715194702E-2,-3.893403625E-1,9.786199493E0,9.794054817E0
1.564724400E1,3.442840576E-2,-4.070036316E-1,9.821675720E0,9.830165371E0
1.565727600E1,3.053649902E-2,-3.992198181E-1,9.845925293E0,9.854062808E0
1.566730700E1,4.805007935E-2,-4.119433594E-1,9.860744476E0,9.869462385E0
1.567733900E1,5.673202515E-2,-4.252656555E-1,9.874066772E0,9.883383228E0
1.568737100E1,6.182144165E-2,-4.323010254E-1,9.878707123E0,9.888354792E0
1.569740200E1,3.532653809E-2,-4.420307922E-1,9.854756927E0,9.864728749E0
1.570743400E1,3.353027344E-2,-4.493655396E-1,9.852511597E0,9.862810879E0
1.571746500E1,3.412902832E-2,-4.320016479E-1,9.846374359E0,9.855905754E0
1.572749700E1,3.293151855E-2,-4.486170959E-1,9.830806732E0,9.841092561E0
1.573752800E1,2.918930054E-2,-4.549040222E-1,9.841584320E0,9.852135383E0
1.574756000E1,2.874023438E-2,-4.288581848E-1,9.853709106E0,9.863079058E0
1.575759100E1,3.038681030E-2,-4.242178345E-1,9.867181091E0,9.876342786E0
1.576762300E1,4.251159668E-2,-4.231700134E-1,9.846374359E0,9.855555191E0
1.577765400E1,6.391708374E-2,-4.165837097E-1,9.868378601E0,9.877374327E0
1.578768600E1,5.433700562E-2,-4.248165894E-1,9.866133270E0,9.875424414E0
1.579771700E1,6.511459351E-2,-3.915856934E-1,9.868677979E0,9.876658560E0
1.580774900E1,5.763015747E-2,-3.962260437E-1,9.855355682E0,9.863485790E0
1.581778000E1,7.095245361E-2,-3.965254211E-1,9.851164398E0,9.859396871E0
1.582781200E1,7.214996338E-2,-3.959266663E-1,9.850266266E0,9.858484115E0
1.583784400E1,5.658233643E-2,-4.053570557E-1,9.829309845E0,9.837827399E0
1.584787500E1,4.999603271E-2,-4.067042542E-1,9.849068756E0,9.857589123E0
1.585790700E1,5.119354248E-2,-4.064048767E-1,9.883646851E0,9.892131255E0
1.586793800E1,5.433700562E-2,-3.989204407E-1,9.905950470E0,9.914128542E0
1.587797000E1,7.274871826E-2,-4.013154602E-1,9.868977356E0,9.877401507E0
1.588800100E1,5.014572144E-2,-4.071533203E-1,9.806557159E0,9.815133812E0
1.589803300E1,1.137634277E-2,-3.933819580E-1,9.778415680E0,9.786331897E0
1.590806400E1,-6.436614990E-3,-3.802093506E-1,9.804311829E0,9.811683393E0
1.591809600E1,-2.544708252E-3,-3.956272888E-1,9.854008484E0,9.861947608E0
1.592812700E1,1.975891113E-2,-4.011657715E-1,9.897418213E0,9.905564682E0
1.593815900E1,4.760101318E-2,-3.923341370E-1,9.838141479E0,9.846076361E0
1.594819000E1,4.340972900E-2,-3.924838257E-1,9.861941986E0,9.869844360E0
1.595822200E1,3.832031250E-2,-3.933819580E-1,9.922865295E0,9.930733784E0
1.596825300E1,4.041595459E-2,-4.061054993E-1,9.948911133E0,9.957278135E0
1.597828500E1,6.122268677E-2,-4.153862000E-1,9.912536774E0,9.921425261E0
1.598831600E1,6.661148071E-2,-4.212240601E-1,9.855205994E0,9.864428619E0
1.599834800E1,8.532257080E-3,-4.086502075E-1,9.750124512E0,9.758688221E0
1.600838000E1,-3.966751099E-2,-3.999682617E-1,9.724378052E0,9.732680854E0
1.601841100E1,-2.978805542E-2,-4.068539429E-1,9.752220154E0,9.760748710E0
1.602844300E1,-4.490661621E-4,-4.257147217E-1,9.761650543E0,9.770929053E0
1.603847400E1,4.026626587E-2,-4.291575623E-1,9.828711090E0,9.838158328E0
1.604850600E1,6.885681152E-2,-4.360432434E-1,9.890233154E0,9.900080142E0
1.605853700E1,1.007405090E-1,-4.315525818E-1,9.947863312E0,9.957729196E0
1.606856900E1,1.026864624E-1,-4.279600525E-1,9.926308136E0,9.936059960E0
1.607860000E1,8.053253174E-2,-4.197271729E-1,9.879455566E0,9.888695499E0
1.608863200E1,5.269042969E-2,-3.881428528E-1,9.845925293E0,9.853713819E0
1.609866300E1,8.981323242E-3,-3.814068604E-1,9.810898132E0,9.818313196E0
1.610869500E1,-7.035369873E-3,-3.676354980E-1,9.813742218E0,9.820628375E0
1.611872600E1,-1.362167358E-2,-3.529660034E-1,9.841135254E0,9.847472449E0
1.612875800E1,-9.430389404E-3,-3.424877930E-1,9.870623932E0,9.876568413E0
1.613879000E1,7.484436035E-4,-3.403921509E-1,9.892927551E0,9.898781890E0
1.614882100E1,5.388793945E-3,-3.582051086E-1,9.909992065E0,9.916465231E0
1.615885300E1,5.688171387E-3,-3.586541748E-1,9.907597046E0,9.914088178E0
1.616888400E1,2.619552612E-2,-3.854484558E-1,9.875863037E0,9.883416790E0
1.617891600E1,1.930984497E-2,-4.025129700E-1,9.860295410E0,9.868526493E0
1.618894700E1,2.125579834E-2,-4.230203247E-1,9.851463776E0,9.860564716E0
1.619897900E1,3.562591553E-2,-4.337979126E-1,9.852361908E0,9.861971659E0
1.620901000E1,3.278182983E-2,-4.592449951E-1,9.844578094E0,9.855338577E0
1.621904200E1,3.697311401E-2,-4.584965515E-1,9.846673737E0,9.857411921E0
1.622907300E1,4.790039063E-2,-4.595443726E-1,9.859546967E0,9.870366856E0
1.623910421E1,5.239105225E-2,-4.592449951E-1,9.885742493E0,9.896542599E0
1.624913521E1,4.355941772E-2,-4.418811035E-1,9.889933777E0,9.899896284E0
1.625916721E1,4.221221924E-2,-4.275109863E-1,9.912985840E0,9.922289845E0
1.626919821E1,4.445755005E-2,-4.155358887E-1,9.908794556E0,9.917603344E0
1.627923021E1,4.071533203E-2,-4.001179504E-1,9.802964630E0,9.811211324E0
1.628926121E1,5.089416504E-3,-3.839515686E-1,9.830058289E0,9.837555116E0
1.629929321E1,-1.616638184E-2,-3.594026184E-1,9.848170624E0,9.854739785E0
1.630932521E1,-2.694396973E-2,-3.570075989E-1,9.750423889E0,9.756994743E0
1.631935621E1,-4.266128540E-2,-3.451821899E-1,9.816436615E0,9.822596324E0
1.632938821E1,-3.053649902E-2,-3.755690002E-1,9.869875488E0,9.877065693E0
1.633941921E1,3.802093506E-2,-3.721261597E-1,9.862391052E0,9.869482293E0
1.634945121E1,5.463638306E-2,-3.972738647E-1,9.853110352E0,9.861267427E0
1.635948221E1,4.790039063E-2,-4.152365112E-1,9.868079224E0,9.876927831E0
1.636951421E1,3.083587646E-2,-4.324507141E-1,9.860894165E0,9.870420366E0
1.637954521E1,3.787124634E-2,-4.493655396E-1,9.846374359E0,9.856695777E0
1.638957721E1,4.939727783E-2,-4.565505981E-1,9.859846344E0,9.870534356E0
1.639960821E1,4.460723877E-2,-4.564009094E-1,9.862241364E0,9.872897058E0
1.640964021E1,4.116439819E-2,-4.478686523E-1,9.861792297E0,9.872042755E0
1.641967121E1,4.400848389E-2,-4.272116089E-1,9.877359924E0,9.886692348E0
