"Time (s)","Acceleration x (m/s^2)","Acceleration y (m/s^2)","Acceleration z (m/s^2)","Absolute acceleration (m/s^2)"
6.954583223E-4,-7.888595581E-1,1.791773987E-1,9.667646027E0,9.701432041E0
1.072645833E-2,-7.306306458E-1,1.917512512E-1,9.668843536E0,9.698305265E0
2.075845830E-2,-7.455995178E-1,1.922003174E-1,9.750274200E0,9.780629151E0
3.078945831E-2,-7.472460938E-1,1.818717957E-1,9.812544708E0,9.842636218E0
4.082145833E-2,-7.098239136E-1,1.851649475E-1,9.875114594E0,9.902324186E0
5.085245834E-2,-6.906637573E-1,1.927990723E-1,9.907147980E0,9.933064432E0
6.088345830E-2,-6.996450806E-1,2.011816406E-1,9.870025177E0,9.896836580E0
7.091545832E-2,-7.054829407E-1,1.908531189E-1,9.804162140E0,9.831364420E0
8.094645833E-2,-7.132667542E-1,1.742376709E-1,9.781409454E0,9.808928542E0
9.097845835E-2,-7.226971436E-1,1.878593445E-1,9.761351166E0,9.789870218E0
1.010094583E-1,-7.300318909E-1,2.107617188E-1,9.761650543E0,9.791179111E0
1.110414583E-1,-7.189549255E-1,1.841171265E-1,9.794582062E0,9.822659165E0
1.210724583E-1,-7.155120850E-1,1.944456482E-1,9.879006500E0,9.906792422E0
1.311034583E-1,-7.135661316E-1,2.065704346E-1,9.911788330E0,9.939587309E0
1.411354583E-1,-7.048841858E-1,2.158511353E-1,9.858349457E0,9.885874136E0
1.511664583E-1,-7.535330200E-1,2.366578674E-1,9.769584045E0,9.801458635E0
1.611984583E-1,-7.851173401E-1,2.415975952E-1,9.705367584E0,9.740068715E0
1.712294583E-1,-7.891589355E-1,2.294728088E-1,9.720037079E0,9.754719392E0
1.812614583E-1,-7.776329041E-1,2.185455322E-1,9.797575836E0,9.830817227E0
1.912924583E-1,-7.352709961E-1,1.950444031E-1,9.803713074E0,9.833181367E0
2.013244584E-1,-7.313790894E-1,1.895059204E-1,9.736951904E0,9.766220367E0
2.113554583E-1,-7.481442261E-1,1.871109009E-1,9.779912567E0,9.810271153E0
2.213864583E-1,-7.494914246E-1,1.730401611E-1,9.886490936E0,9.916369463E0
2.314184583E-1,-7.090754700E-1,1.410067749E-1,9.958790588E0,9.984997792E0
2.414494583E-1,-6.878196716E-1,1.338217163E-1,9.891430664E0,9.916219276E0
2.514814583E-1,-7.203021240E-1,1.233435059E-1,9.835896149E0,9.863006733E0
2.615124583E-1,-7.517367554E-1,1.429527283E-1,9.828262024E0,9.858005784E0
2.715444583E-1,-7.692503357E-1,1.378633118E-1,9.775122528E0,9.806312906E0
2.815754583E-1,-7.683522034E-1,1.513352966E-1,9.689350891E0,9.720945848E0
2.916064583E-1,-7.661068726E-1,1.390608215E-1,9.686656494E0,9.717899551E0
3.016384583E-1,-7.391629028E-1,1.411564636E-1,9.759704590E0,9.788673078E0
3.116694583E-1,-7.102729797E-1,1.374142456E-1,9.827513580E0,9.854105416E0
3.217014583E-1,-6.738986206E-1,1.676513672E-1,9.887089691E0,9.911447366E0
3.317324583E-1,-6.670129395E-1,2.064207458E-1,9.896669769E0,9.921269491E0
3.417642083E-1,-6.975494385E-1,2.125579834E-1,9.871072998E0,9.897971421E0
3.517952083E-1,-7.277865601E-1,2.424957275E-1,9.840686188E0,9.870541125E0
3.618262083E-1,-7.590715027E-1,2.381547546E-1,9.827513580E0,9.859661779E0
3.718582083E-1,-7.586224365E-1,2.215393066E-1,9.830806732E0,9.862522429E0
3.818892083E-1,-7.467970276E-1,1.957928467E-1,9.853409729E0,9.883608851E0
3.919212083E-1,-7.436535645E-1,1.796264648E-1,9.864337006E0,9.893959311E0
4.019522083E-1,-7.300318909E-1,1.407073975E-1,9.873767395E0,9.901718422E0
4.119842083E-1,-7.357200623E-1,1.182540894E-1,9.870025177E0,9.898114216E0
4.220152083E-1,-7.223977661E-1,9.864486694E-2,9.850116577E0,9.877063629E0
4.320462083E-1,-7.129673767E-1,8.876541138E-2,9.815837860E0,9.842097067E0
4.420782083E-1,-7.167095947E-1,1.007405090E-1,9.833950195E0,9.860547537E0
4.521092083E-1,-6.794371033E-1,9.205856323E-2,9.836943970E0,9.860810120E0
4.621412084E-1,-6.914122009E-1,8.442443848E-2,9.826914825E0,9.851570093E0
4.721722083E-1,-6.891668701E-1,9.834548950E-2,9.836195526E0,9.860799422E0
4.822042083E-1,-6.744973755E-1,1.166075134E-1,9.850565643E0,9.874319598E0
4.922352083E-1,-6.730004883E-1,1.019380188E-1,9.860744476E0,9.884209763E0
5.022662084E-1,-6.936575317E-1,1.098715210E-1,9.877958679E0,9.902893526E0
5.122982083E-1,-6.917115784E-1,1.148112488E-1,9.900411987E0,9.925210529E0
5.223292083E-1,-6.957531738E-1,1.378633118E-1,9.880952454E0,9.906376742E0
5.323612083E-1,-7.267387390E-1,1.672023010E-1,9.809850311E0,9.838153736E0
5.423922083E-1,-7.599696350E-1,1.821711731E-1,9.841135254E0,9.872116453E0
5.524242083E-1,-7.583230591E-1,2.085163879E-1,9.841135254E0,9.872511131E0
5.624552083E-1,-7.577243042E-1,2.231858826E-1,9.768236847E0,9.800122915E0
5.724862083E-1,-7.791297913E-1,2.327659607E-1,9.745334473E0,9.779200745E0
5.825182083E-1,-7.695497131E-1,2.149530029E-1,9.784852295E0,9.817420536E0
5.925492083E-1,-7.240443420E-1,1.986369324E-1,9.817185059E0,9.845852899E0
6.025812083E-1,-6.968009949E-1,1.594184875E-1,9.825717316E0,9.851683442E0
6.126122084E-1,-7.116201782E-1,1.345701599E-1,9.852661285E0,9.879243231E0
6.226442083E-1,-7.087760925E-1,1.212478638E-1,9.894424438E0,9.920519118E0
6.326752083E-1,-7.170089722E-1,1.088237000E-1,9.922565918E0,9.949033062E0
6.427062083E-1,-7.039860535E-1,1.098715210E-1,9.928104401E0,9.953638787E0
6.527382083E-1,-7.165599060E-1,1.085243225E-1,9.879006500E0,9.905554253E0
6.627692083E-1,-7.253915405E-1,1.131646729E-1,9.846374359E0,9.873706860E0
6.728012083E-1,-7.334747314E-1,1.357676697E-1,9.793085175E0,9.821452809E0
6.828322083E-1,-7.466473389E-1,1.567240906E-1,9.755662994E0,9.785448643E0
6.928642083E-1,-7.409591675E-1,1.769320679E-1,9.794432373E0,9.824012976E0
7.028952083E-1,-7.337741089E-1,1.895059204E-1,9.821675720E0,9.850870565E0
7.129272083E-1,-7.150630188E-1,1.739382935E-1,9.843530273E0,9.871000856E0
7.229582083E-1,-7.146139526E-1,1.812730408E-1,9.838291168E0,9.865875842E0
7.329892083E-1,-7.402107239E-1,1.854643250E-1,9.810449066E0,9.840082307E0
7.430212083E-1,-7.726931763E-1,1.823208618E-1,9.752369843E0,9.784631479E0
7.530522083E-1,-7.902067566E-1,1.796264648E-1,9.745334473E0,9.778969085E0
7.630842083E-1,-7.967930603E-1,1.733395386E-1,9.750573578E0,9.784610921E0
7.731152083E-1,-7.705975342E-1,1.686991882E-1,9.789492645E0,9.821224273E0
7.831472083E-1,-7.686515808E-1,1.887574768E-1,9.821226654E0,9.853067930E0
7.931782083E-1,-7.562274170E-1,1.841171265E-1,9.836195526E0,9.866940835E0
8.032092083E-1,-7.421566772E-1,1.907034302E-1,9.848769379E0,9.878533424E0
8.132412083E-1,-7.503895569E-1,1.880090332E-1,9.838291168E0,9.868657710E0
8.232722083E-1,-7.542814636E-1,1.936972046E-1,9.829309845E0,9.860111113E0
8.333042083E-1,-7.566764832E-1,1.980381775E-1,9.808503113E0,9.839639817E0
8.433352083E-1,-7.611671448E-1,1.919009399E-1,9.798623657E0,9.830016631E0
8.533672083E-1,-7.623646545E-1,1.881587219E-1,9.804461517E0,9.835856303E0
8.633982083E-1,-7.629634094E-1,1.910028076E-1,9.823471985E0,9.854907259E0
8.734292083E-1,-7.415579224E-1,1.862127686E-1,9.833501129E0,9.863180410E0
8.834612083E-1,-7.355703735E-1,1.847158813E-1,9.837542725E0,9.866733532E0
8.934922083E-1,-7.285350037E-1,1.974394226E-1,9.838889923E0,9.867801199E0
9.035242083E-1,-7.276368713E-1,1.947450256E-1,9.827214203E0,9.856039774E0
9.135552083E-1,-7.310797119E-1,1.913021851E-1,9.823322296E0,9.852346675E0
9.235872083E-1,-7.146139526E-1,1.895059204E-1,9.824070740E0,9.851850156E0
9.336182083E-1,-7.219487000E-1,1.905537415E-1,9.838889923E0,9.867181744E0
9.436492083E-1,-7.286846924E-1,1.933978271E-1,9.819131012E0,9.848031170E0
9.536812083E-1,-7.270381165E-1,1.797761536E-1,9.822723541E0,9.851233509E0
9.637122083E-1,-7.433541870E-1,2.029779053E-1,9.818981323E0,9.849171016E0
9.737442083E-1,-7.370672607E-1,1.950444031E-1,9.842332764E0,9.871819726E0
9.837752083E-1,-7.442523193E-1,1.827699280E-1,9.902208252E0,9.931819804E0
9.938072083E-1,-7.285350037E-1,1.984872437E-1,9.902956696E0,9.931702359E0
1.003838208E0,-7.288343811E-1,1.965412903E-1,9.789642334E0,9.818702820E0
1.013869208E0,-7.664062500E-1,2.146536255E-1,9.714199219E0,9.746749262E0
1.023901208E0,-7.940986633E-1,2.341131592E-1,9.734407196E0,9.769548870E0
1.033932208E0,-7.897576904E-1,2.338137817E-1,9.802365875E0,9.836908195E0
1.043964208E0,-7.526348877E-1,2.218386841E-1,9.817035370E0,9.848342761E0
1.053995208E0,-7.455995178E-1,2.233355713E-1,9.729317780E0,9.760400703E0
1.064027208E0,-7.553292847E-1,2.345622253E-1,9.777667236E0,9.809603374E0
1.074058208E0,-7.550299072E-1,2.360591125E-1,9.886940002E0,9.918537023E0
1.084090208E0,-7.087760925E-1,2.130070496E-1,1.002839584E1,1.005566799E1
1.094121208E0,-6.771917725E-1,1.845661926E-1,9.933044128E0,9.957811960E0
1.104152208E0,-7.250921631E-1,1.933978271E-1,9.822124786E0,9.850751072E0
1.114184208E0,-7.746391296E-1,1.868115234E-1,9.765093384E0,9.797551384E0
1.124215208E0,-8.023315430E-1,1.948947144E-1,9.725126495E0,9.760112971E0
1.134247208E0,-7.908055115E-1,1.838177490E-1,9.678722992E0,9.712715433E0
1.144278208E0,-7.641609192E-1,1.832189941E-1,9.676028595E0,9.707885479E0
1.154310208E0,-7.201524353E-1,1.842668152E-1,9.745933228E0,9.774241058E0
1.164341208E0,-6.991960144E-1,1.778302002E-1,9.831405487E0,9.857841168E0
1.174372208E0,-6.640191650E-1,1.898052979E-1,9.889035645E0,9.913121278E0
1.184404208E0,-6.571334839E-1,2.140548706E-1,9.916578369E0,9.940632297E0
1.194435208E0,-6.738986206E-1,2.203417969E-1,9.890382843E0,9.915763341E0
1.204467208E0,-7.011419678E-1,2.395019531E-1,9.840985565E0,9.868837730E0
1.214498208E0,-7.406597900E-1,2.553689575E-1,9.823172607E0,9.854365038E0
1.224530208E0,-7.414082336E-1,2.661465454E-1,9.824519806E0,9.856049390E0
1.234561208E0,-7.469467163E-1,2.748284912E-1,9.820478210E0,9.852677422E0
1.244592208E0,-7.532336426E-1,2.673440552E-1,9.835596771E0,9.868018930E0
1.254624208E0,-7.406597900E-1,2.573149109E-1,9.848769379E0,9.879931486E0
1.264655208E0,-7.167095947E-1,2.571652222E-1,9.848170624E0,9.877564033E0
1.274687208E0,-7.059320068E-1,2.246827698E-1,9.858798523E0,9.886593481E0
1.284718208E0,-7.021897888E-1,2.218386841E-1,9.846224670E0,9.873723875E0
1.294750208E0,-6.981481934E-1,2.097138977E-1,9.852361908E0,9.879292788E0
1.304781208E0,-6.887178040E-1,1.936972046E-1,9.843979340E0,9.869943265E0
1.314812208E0,-6.851252747E-1,1.746867371E-1,9.818232880E0,9.843658313E0
1.324844208E0,-6.951544189E-1,1.637594604E-1,9.795330505E0,9.821331709E0
1.334875917E0,-6.966513062E-1,1.589694214E-1,9.818083191E0,9.844051598E0
1.344907917E0,-7.003935242E-1,1.624122620E-1,9.829609222E0,9.855868622E0
1.354938917E0,-6.875202942E-1,1.743873596E-1,9.839788055E0,9.865319259E0
1.364970917E0,-6.755451965E-1,1.905537415E-1,9.870025177E0,9.894951694E0
1.375001917E0,-6.821315002E-1,1.974394226E-1,9.895921326E0,9.921368081E0
1.385032917E0,-6.927593994E-1,2.267784119E-1,9.879904633E0,9.906758278E0
1.395064917E0,-7.099736023E-1,2.493814087E-1,9.819729767E0,9.848520005E0
1.405095917E0,-7.379653931E-1,2.689906311E-1,9.826316071E0,9.857658769E0
1.415127917E0,-7.652087402E-1,2.875520325E-1,9.760303345E0,9.794475584E0
1.425158917E0,-7.897576904E-1,2.933898926E-1,9.707463226E0,9.743953876E0
1.435190917E0,-8.081694031E-1,2.918930054E-1,9.751771088E0,9.789554569E0
1.445221917E0,-7.568261719E-1,2.710862732E-1,9.797575836E0,9.830501813E0
1.455252917E0,-7.024891663E-1,2.487826538E-1,9.829908600E0,9.858117818E0
1.465284917E0,-7.120692444E-1,2.418969727E-1,9.821975098E0,9.850723404E0
1.475315917E0,-7.069798279E-1,2.318678284E-1,9.824519806E0,9.852653073E0
1.485347917E0,-7.159611511E-1,1.962419128E-1,9.846074982E0,9.874021663E0
1.495378917E0,-7.128176880E-1,1.895059204E-1,9.872270508E0,9.899785176E0
1.505410917E0,-7.113208008E-1,1.731898499E-1,9.896969147E0,9.924009789E0
1.515441917E0,-7.099736023E-1,2.005828857E-1,9.879156189E0,9.906665585E0
1.525473917E0,-7.054829407E-1,1.962419128E-1,9.876910858E0,9.904018637E0
1.535504917E0,-7.137158203E-1,2.037263489E-1,9.849068756E0,9.876996004E0
1.545535917E0,-7.315287781E-1,2.189945984E-1,9.805958405E0,9.835645033E0
1.555567917E0,-7.280859375E-1,2.311193848E-1,9.799222412E0,9.828951378E0
1.565598917E0,-7.155120850E-1,2.333647156E-1,9.802665253E0,9.831513754E0
1.575630917E0,-7.098239136E-1,2.493814087E-1,9.819280701E0,9.848061462E0
1.585661917E0,-7.042854309E-1,2.453398132E-1,9.810449066E0,9.838756043E0
1.595693917E0,-7.077282715E-1,2.420466614E-1,9.799222412E0,9.827727396E0
1.605724917E0,-7.388635254E-1,2.423460388E-1,9.798324280E0,9.829130664E0
1.615755917E0,-7.556286621E-1,2.360591125E-1,9.799072723E0,9.830998160E0
1.625787917E0,-7.614665222E-1,2.273771667E-1,9.779613190E0,9.811848235E0
1.635818917E0,-7.506889343E-1,2.130070496E-1,9.797875214E0,9.828899459E0
1.645850917E0,-7.216493225E-1,2.037263489E-1,9.831704865E0,9.860258755E0
1.655881917E0,-7.291337585E-1,2.182461548E-1,9.840985565E0,9.870373059E0
1.665913917E0,-7.167095947E-1,2.282752991E-1,9.851912842E0,9.880585453E0
1.675944917E0,-7.331753540E-1,2.257305908E-1,9.831255798E0,9.861140450E0
1.685975917E0,-7.482939148E-1,2.180964661E-1,9.818831635E0,9.849719007E0
1.696007917E0,-7.529342651E-1,2.243833923E-1,9.824669495E0,9.856033106E0
1.706038917E0,-7.625143433E-1,2.308200073E-1,9.826765137E0,9.859007001E0
1.716070917E0,-7.568261719E-1,2.143542480E-1,9.804910583E0,9.836412209E0
1.726101917E0,-7.476951599E-1,2.154020691E-1,9.823471985E0,9.854240100E0
1.736133917E0,-7.403604126E-1,2.128573608E-1,9.831405487E0,9.861540227E0
1.746164917E0,-7.424560547E-1,2.070195007E-1,9.842332764E0,9.872467387E0
1.756195917E0,-7.366181946E-1,2.230361938E-1,9.853709106E0,9.883720689E0
1.766227917E0,-7.170089722E-1,1.963916016E-1,9.845775604E0,9.873802144E0
1.776258917E0,-7.114704895E-1,2.089654541E-1,9.837991791E0,9.865897795E0
1.786290917E0,-7.048841858E-1,2.146536255E-1,9.836195526E0,9.863755893E0
1.796321917E0,-7.015910339E-1,2.002835083E-1,9.829010468E0,9.856053482E0
1.806353917E0,-7.075785828E-1,2.136058044E-1,9.808802490E0,9.836610249E0
1.816384917E0,-7.099736023E-1,2.092648315E-1,9.826914825E0,9.854750594E0
1.826415917E0,-7.062313843E-1,2.180964661E-1,9.828561401E0,9.856315136E0
1.836447917E0,-7.183561707E-1,2.155517578E-1,9.818831635E0,9.847433819E0
1.846478917E0,-7.238946533E-1,2.085163879E-1,9.817334747E0,9.846195412E0
1.856510917E0,-7.394622803E-1,2.198927307E-1,9.813143463E0,9.843421250E0
1.866541917E0,-7.373666382E-1,2.094145203E-1,9.832453308E0,9.862286857E0
1.876573917E0,-7.405101013E-1,2.152523804E-1,9.818981323E0,9.849217381E0
1.886604917E0,-7.411088562E-1,2.116598511E-1,9.826914825E0,9.857093751E0
1.896635917E0,-7.373666382E-1,2.185455322E-1,9.827663269E0,9.857709523E0
1.906667917E0,-7.333250427E-1,2.053729248E-1,9.843829651E0,9.873242925E0
1.916698917E0,-7.195536804E-1,2.107617188E-1,9.829609222E0,9.858163899E0
1.926730917E0,-7.258406067E-1,2.044747925E-1,9.843979340E0,9.872820456E0
1.936761917E0,-7.367678833E-1,1.981878662E-1,9.842931519E0,9.872456950E0
1.946793917E0,-7.566764832E-1,2.022294617E-1,9.809850311E0,9.841067990E0
1.956824917E0,-7.448510742E-1,2.007325745E-1,9.802814941E0,9.833121451E0
1.966855917E0,-7.301815796E-1,1.856140137E-1,9.889784088E0,9.918439747E0
1.976887917E0,-7.137158203E-1,1.865121460E-1,9.929301910E0,9.956666786E0
1.986918917E0,-7.108717346E-1,1.980381775E-1,9.836045837E0,9.863688735E0
1.996950917E0,-7.366181946E-1,2.267784119E-1,9.746531982E0,9.776958653E0
2.006981917E0,-7.677534485E-1,2.478845215E-1,9.730664978E0,9.764053104E0
2.017013917E0,-7.767347717E-1,2.345622253E-1,9.799372101E0,9.832905467E0
2.027044917E0,-7.328759766E-1,2.279759216E-1,9.839488678E0,9.869377775E0
2.037076917E0,-7.021897888E-1,2.192939758E-1,9.737850037E0,9.765596945E0
2.047107917E0,-7.345225525E-1,2.233355713E-1,9.777068481E0,9.807164231E0
2.057138917E0,-7.457492065E-1,2.323168945E-1,9.866282959E0,9.897153755E0
2.067170917E0,-7.027885437E-1,2.079176331E-1,1.001971390E1,1.004648237E1
2.077201917E0,-6.553372192E-1,1.844165039E-1,9.990823975E0,1.001399221E1
2.087233917E0,-6.727011108E-1,1.874102783E-1,9.885143738E0,9.909778813E0
2.097264917E0,-7.589218140E-1,1.971400452E-1,9.783954163E0,9.815324018E0
2.107296917E0,-7.797285461E-1,1.972897339E-1,9.687704315E0,9.721034654E0
2.117327917E0,-7.685018921E-1,1.842668152E-1,9.651030579E0,9.683333137E0
2.127358917E0,-7.276368713E-1,1.580712891E-1,9.679770813E0,9.708367779E0
2.137390917E0,-6.890171814E-1,1.550775146E-1,9.808802490E0,9.834195443E0
2.147421917E0,-6.477030945E-1,1.504371643E-1,9.897717590E0,9.920028434E0
2.157453917E0,-6.303392029E-1,1.534309387E-1,9.947563934E0,9.968695842E0
2.167484917E0,-6.427633667E-1,1.713935852E-1,9.929002533E0,9.951261820E0
2.177516917E0,-6.956034851E-1,1.917512512E-1,9.890382843E0,9.916668066E0
2.187547917E0,-7.394622803E-1,2.203417969E-1,9.829459534E0,9.859697242E0
2.197578917E0,-7.584727478E-1,2.471360779E-1,9.785301361E0,9.817763487E0
2.207610917E0,-7.568261719E-1,2.709365845E-1,9.790540466E0,9.823485894E0
2.217641917E0,-7.649093628E-1,2.640509033E-1,9.790540466E0,9.823924462E0
2.227673917E0,-7.409591675E-1,2.689906311E-1,9.805808716E0,9.837441792E0
2.237704917E0,-7.243437195E-1,2.531236267E-1,9.838740234E0,9.868614634E0
2.247736917E0,-7.129673767E-1,2.333647156E-1,9.857900391E0,9.886403880E0
2.257767917E0,-7.002438354E-1,2.017803955E-1,9.872869263E0,9.899727483E0
2.267798917E0,-6.933581543E-1,1.685494995E-1,9.876312103E0,9.902055101E0
2.277830917E0,-6.890171814E-1,1.336720276E-1,9.863139496E0,9.888080380E0
2.287861917E0,-6.840774536E-1,9.684860229E-2,9.838590546E0,9.862819350E0
2.297893917E0,-6.792874146E-1,9.894424438E-2,9.840985565E0,9.864898289E0
2.307924917E0,-6.703060913E-1,8.382568359E-2,9.849817200E0,9.872954769E0
2.317956917E0,-6.635700989E-1,9.071136475E-2,9.849368134E0,9.872112563E0
2.327987917E0,-6.396199036E-1,9.864486694E-2,9.871971130E0,9.893162206E0
2.338018417E0,-6.481521606E-1,9.355545044E-2,9.874366150E0,9.896057837E0
2.348050417E0,-6.493496704E-1,1.369651794E-1,9.866133270E0,9.888427588E0
2.358081417E0,-6.538403320E-1,1.636097717E-1,9.904902649E0,9.927808007E0
2.368113417E0,-6.655160522E-1,1.883084106E-1,9.905800781E0,9.929917461E0
2.378144417E0,-6.909631348E-1,2.165995789E-1,9.831704865E0,9.858334848E0
2.388176417E0,-7.349716187E-1,2.426454163E-1,9.829758911E0,9.860183585E0
2.398207417E0,-7.589218140E-1,2.710862732E-1,9.776769104E0,9.809926819E0
2.408238417E0,-7.825726318E-1,2.707868958E-1,9.741891632E0,9.777023987E0
2.418270417E0,-7.828720093E-1,2.552192688E-1,9.789941711E0,9.824509360E0
2.428301417E0,-7.487429810E-1,2.173480225E-1,9.812395020E0,9.843320183E0
2.438333417E0,-6.960525513E-1,1.889071655E-1,9.826316071E0,9.852748986E0
2.448364417E0,-7.099736023E-1,1.911524963E-1,9.819580078E0,9.847068330E0
2.458396417E0,-7.197033691E-1,1.722917175E-1,9.831704865E0,9.859517124E0
2.468427417E0,-7.003935242E-1,1.739382935E-1,9.853409729E0,9.879802068E0
2.478458417E0,-6.881190491E-1,1.435514832E-1,9.858050079E0,9.883079794E0
2.488490417E0,-6.858737183E-1,1.486408997E-1,9.861043854E0,9.885985169E0
2.498521417E0,-6.810836792E-1,1.410067749E-1,9.867031403E0,9.891514878E0
2.508553417E0,-6.894662476E-1,1.523831177E-1,9.874665527E0,9.899878969E0
2.518584417E0,-6.843768311E-1,1.630110168E-1,9.858798523E0,9.883868299E0
2.528616417E0,-6.836283875E-1,1.722917175E-1,9.831555176E0,9.856800159E0
2.538647417E0,-7.075785828E-1,1.733395386E-1,9.794132996E0,9.821189092E0
2.548678417E0,-7.234455872E-1,1.905537415E-1,9.815538483E0,9.844007312E0
2.558710417E0,-7.059320068E-1,1.995350647E-1,9.833201752E0,9.860527924E0
2.568741417E0,-7.087760925E-1,1.978884888E-1,9.840237122E0,9.867714528E0
2.578773417E0,-7.286846924E-1,2.005828857E-1,9.818532257E0,9.847577903E0
2.588804417E0,-7.469467163E-1,2.125579834E-1,9.802216187E0,9.832932038E0
2.598836417E0,-7.720944214E-1,2.065704346E-1,9.780062256E0,9.812666247E0
2.608867417E0,-7.785310364E-1,2.151026917E-1,9.769134979E0,9.802467954E0
2.618898417E0,-7.653584290E-1,2.149530029E-1,9.789043579E0,9.821270412E0
2.628930417E0,-7.532336426E-1,2.032772827E-1,9.807754669E0,9.838736414E0
2.638961417E0,-7.399113464E-1,2.143542480E-1,9.813442841E0,9.843631288E0
2.648993417E0,-7.297325134E-1,2.198927307E-1,9.823771362E0,9.853291132E0
2.659024417E0,-7.286846924E-1,2.040257263E-1,9.836943970E0,9.866006008E0
2.669056417E0,-7.387138367E-1,2.112107849E-1,9.843081207E0,9.873021614E0
2.679087417E0,-7.370672607E-1,2.085163879E-1,9.820478210E0,9.850306569E0
2.689118417E0,-7.397616577E-1,2.106120300E-1,9.804162140E0,9.834286960E0
2.699150417E0,-7.514373779E-1,1.974394226E-1,9.802964630E0,9.833705100E0
2.709181417E0,-7.441026306E-1,2.002835083E-1,9.826316071E0,9.856484654E0
2.719213417E0,-7.280859375E-1,1.989363098E-1,9.834399261E0,9.863320618E0
2.729244417E0,-7.255412292E-1,1.904040527E-1,9.832602997E0,9.861173636E0
2.739276417E0,-7.101232910E-1,1.875599670E-1,9.842482452E0,9.869848766E0
2.749307417E0,-7.090754700E-1,1.763333130E-1,9.844727783E0,9.871805640E0
2.759338417E0,-7.038363647E-1,1.712438965E-1,9.837093658E0,9.863727579E0
2.769370417E0,-6.921606445E-1,1.655557251E-1,9.824519806E0,9.850263168E0
2.779401417E0,-6.773414612E-1,1.721420288E-1,9.809850311E0,9.834713390E0
2.789433417E0,-6.960525513E-1,1.663041687E-1,9.819729767E0,9.845772642E0
2.799464417E0,-6.833290100E-1,1.806742859E-1,9.811197510E0,9.836624335E0
2.809496417E0,-6.795867920E-1,1.857637024E-1,9.820927277E0,9.846164681E0
2.819527417E0,-6.905140686E-1,1.859133911E-1,9.801916809E0,9.827967572E0
2.829558417E0,-7.032376099E-1,1.957928467E-1,9.797725525E0,9.824881854E0
2.839590417E0,-7.083270264E-1,2.089654541E-1,9.829459534E0,9.857163307E0
2.849621417E0,-7.122189331E-1,1.850152588E-1,9.886490936E0,9.913838282E0
2.859653417E0,-7.108717346E-1,1.969903564E-1,9.870923309E0,9.898447899E0
2.869684417E0,-7.095245361E-1,2.068698120E-1,9.840835876E0,9.868549586E0
2.879716417E0,-7.322772217E-1,2.218386841E-1,9.790839844E0,9.820691787E0
2.889747417E0,-7.580236816E-1,2.252815247E-1,9.783804474E0,9.815710960E0
2.899778417E0,-7.601193237E-1,2.164498901E-1,9.821526031E0,9.853273848E0
2.909810417E0,-7.469467163E-1,2.070195007E-1,9.815388794E0,9.845945544E0
2.919841417E0,-7.312294006E-1,2.061213684E-1,9.742640076E0,9.772216642E0
2.929873417E0,-7.448510742E-1,2.092648315E-1,9.736203461E0,9.766895757E0
2.939904417E0,-7.481442261E-1,1.938468933E-1,9.796228638E0,9.826667386E0
2.949936417E0,-6.979985046E-1,1.661544800E-1,9.958940277E0,9.984753410E0
2.959967417E0,-6.613247681E-1,1.395098877E-1,9.924661560E0,9.947648996E0
2.969999417E0,-6.539900208E-1,1.338217163E-1,9.861193542E0,9.883761899E0
2.980030417E0,-6.810836792E-1,1.532812500E-1,9.849068756E0,9.873779696E0
2.990061417E0,-7.259902954E-1,1.600172424E-1,9.796078949E0,9.824247055E0
3.000093417E0,-7.373666382E-1,1.675016785E-1,9.680219879E0,9.709707683E0
3.010124417E0,-7.394622803E-1,1.649569702E-1,9.618997192E0,9.648788642E0
3.020156417E0,-7.307803345E-1,1.642085266E-1,9.680219879E0,9.709153477E0
3.030187417E0,-6.709048462E-1,1.730401611E-1,9.765841827E0,9.790389308E0
3.040219417E0,-6.536906433E-1,1.824705505E-1,9.842482452E0,9.865853627E0
3.050250417E0,-6.351292419E-1,2.005828857E-1,9.881700897E0,9.904122135E0
3.060281417E0,-6.430627441E-1,2.314187622E-1,9.909992065E0,9.933530444E0
3.070313417E0,-6.806346130E-1,2.363584900E-1,9.883646851E0,9.909874060E0
3.080344417E0,-7.066804504E-1,2.357597351E-1,9.854906616E0,9.883024048E0
3.090376417E0,-7.267387390E-1,2.333647156E-1,9.822424164E0,9.852036578E0
3.100407417E0,-7.385641479E-1,2.239343262E-1,9.818232880E0,9.848518694E0
3.110438417E0,-7.415579224E-1,2.004331970E-1,9.842332764E0,9.872263968E0
3.120470417E0,-7.192543030E-1,1.877096558E-1,9.840386810E0,9.868423088E0
3.130501417E0,-7.131170654E-1,1.731898499E-1,9.826465759E0,9.853829712E0
3.140533417E0,-7.033872986E-1,1.332229614E-1,9.834099884E0,9.860122848E0
3.150564417E0,-6.870712280E-1,1.359173584E-1,9.819131012E0,9.844078130E0
3.160596417E0,-6.706054688E-1,1.248403931E-1,9.829010468E0,9.852651602E0
3.170627417E0,-6.683601379E-1,1.314266968E-1,9.823022919E0,9.846611474E0
3.180658417E0,-6.497987366E-1,1.128652954E-1,9.813143463E0,9.835281470E0
3.190690417E0,-6.563850403E-1,1.299298096E-1,9.812694397E0,9.835481402E0
3.200721417E0,-6.622229004E-1,1.296304321E-1,9.805060272E0,9.828252650E0
3.210753417E0,-6.774911499E-1,1.248403931E-1,9.803413696E0,9.827588691E0
3.220784417E0,-6.933581543E-1,1.296304321E-1,9.815987549E0,9.841298753E0
3.230816417E0,-6.831793213E-1,1.396595764E-1,9.832602997E0,9.857297828E0
3.240847417E0,-6.988966370E-1,1.624122620E-1,9.846074982E0,9.872184500E0
3.250879417E0,-7.080276489E-1,1.749861145E-1,9.826914825E0,9.853942271E0
3.260910417E0,-7.496411133E-1,1.935475159E-1,9.851314087E0,9.881690730E0
3.270941417E0,-7.429051208E-1,2.372566223E-1,9.798024902E0,9.829012703E0
3.280973417E0,-7.426057434E-1,2.451901245E-1,9.773775330E0,9.805012273E0
3.291004417E0,-7.536827087E-1,2.535726929E-1,9.786349182E0,9.818603111E0
3.301036417E0,-7.578739929E-1,2.207908630E-1,9.749825134E0,9.781728464E0
3.311067417E0,-7.364685059E-1,2.118095398E-1,9.764494629E0,9.794519105E0
3.321099417E0,-7.246430969E-1,1.935475159E-1,9.821825409E0,9.850422459E0
3.331130417E0,-7.059320068E-1,1.728904724E-1,9.850565643E0,9.877341475E0
3.341160792E0,-7.144642639E-1,1.486408997E-1,9.883347473E0,9.910252801E0
3.351192792E0,-7.113208008E-1,1.399589539E-1,9.912237396E0,9.938712995E0
3.361223792E0,-7.024891663E-1,1.357676697E-1,9.922116852E0,9.947880513E0
3.371255792E0,-7.123686218E-1,1.371148682E-1,9.870923309E0,9.897544974E0
3.381286792E0,-7.219487000E-1,1.655557251E-1,9.850865021E0,9.878671990E0
3.391318792E0,-7.174580383E-1,1.700463867E-1,9.792935486E0,9.820654115E0
3.401349792E0,-7.173083496E-1,1.836680603E-1,9.781409454E0,9.809395299E0
3.411380792E0,-7.336244202E-1,1.984872437E-1,9.786947937E0,9.816412374E0
3.421412792E0,-7.147636414E-1,2.016307068E-1,9.801467743E0,9.829563160E0
3.431443792E0,-6.950047302E-1,2.110610962E-1,9.815688171E0,9.842525725E0
3.441475792E0,-7.101232910E-1,2.041754150E-1,9.813143463E0,9.840922077E0
3.451506792E0,-7.334747314E-1,2.026785278E-1,9.802066498E0,9.831559968E0
3.461538792E0,-7.445516968E-1,2.038760376E-1,9.782606964E0,9.813017970E0
3.471569792E0,-7.764353943E-1,1.889071655E-1,9.755064240E0,9.787738051E0
3.481600792E0,-7.761360168E-1,1.824705505E-1,9.752369843E0,9.784906753E0
3.491632792E0,-7.929011536E-1,1.927990723E-1,9.770631866E0,9.804647408E0
3.501663792E0,-7.643106079E-1,1.764830017E-1,9.783056030E0,9.814453742E0
3.511695792E0,-7.586224365E-1,1.939965820E-1,9.802665253E0,9.833889807E0
3.521726792E0,-7.360194397E-1,1.880090332E-1,9.831555176E0,9.860859455E0
3.531757792E0,-7.432044983E-1,1.830693054E-1,9.834399261E0,9.864140922E0
3.541789792E0,-7.405101013E-1,1.932481384E-1,9.832004242E0,9.861744646E0
3.551820792E0,-7.521858215E-1,1.923500061E-1,9.827064514E0,9.857686290E0
3.561852792E0,-7.613168335E-1,1.790277100E-1,9.801617432E0,9.832769626E0
3.571883792E0,-7.625143433E-1,1.859133911E-1,9.803413696E0,9.834780730E0
3.581915792E0,-7.696994019E-1,1.793270874E-1,9.808353424E0,9.840141882E0
3.591946792E0,-7.560777283E-1,1.800755310E-1,9.814640350E0,9.845366724E0
3.601977792E0,-7.445516968E-1,1.731898499E-1,9.817334747E0,9.847051005E0
3.612009792E0,-7.447013855E-1,1.631607056E-1,9.834399261E0,9.863904420E0
3.622040792E0,-7.376660156E-1,1.609153748E-1,9.844129028E0,9.873040121E0
3.632072792E0,-7.093748474E-1,1.709445190E-1,9.855355682E0,9.882331219E0
3.642103792E0,-6.920109558E-1,1.736389160E-1,9.833650818E0,9.859498874E0
3.652135792E0,-7.065307617E-1,1.619631958E-1,9.819580078E0,9.846297309E0
3.662166792E0,-7.300318909E-1,1.683998108E-1,9.810299377E0,9.838865734E0
3.672197792E0,-7.238946533E-1,1.728904724E-1,9.802066498E0,9.830280882E0
3.682229792E0,-7.289840698E-1,1.679507446E-1,9.831106110E0,9.859526995E0
3.692260792E0,-7.244934082E-1,1.597178650E-1,9.904004517E0,9.931752411E0
3.702292792E0,-7.086264038E-1,1.782792664E-1,9.898166656E0,9.925101412E0
3.712323792E0,-7.339237976E-1,1.788780212E-1,9.824968872E0,9.853966451E0
3.722355792E0,-7.578739929E-1,2.010319519E-1,9.792935486E0,9.824274643E0
3.732386792E0,-7.827223206E-1,2.107617188E-1,9.771380310E0,9.804945074E0
3.742418792E0,-7.872129822E-1,1.947450256E-1,9.808353424E0,9.841820299E0
3.752449792E0,-7.720944214E-1,1.857637024E-1,9.816885681E0,9.848953367E0
3.762480792E0,-7.562274170E-1,1.808239746E-1,9.716743927E0,9.747804356E0
3.772512792E0,-7.572752380E-1,1.833686829E-1,9.734706573E0,9.765838517E0
3.782543792E0,-7.545808411E-1,1.788780212E-1,9.869875488E0,9.900294528E0
3.792575792E0,-7.132667542E-1,1.562750244E-1,1.002285736E1,1.004941993E1
3.802606792E0,-6.786886597E-1,1.315763855E-1,9.914931793E0,9.939004130E0
3.812638792E0,-7.000941467E-1,1.251397705E-1,9.824370117E0,9.850078171E0
3.822669792E0,-7.619155884E-1,1.314266968E-1,9.809251556E0,9.839675017E0
3.832700792E0,-8.018824768E-1,1.478924561E-1,9.780661011E0,9.814592070E0
3.842732792E0,-7.804769897E-1,1.437011719E-1,9.680668945E0,9.713142930E0
3.852763792E0,-7.625143433E-1,1.246907043E-1,9.659263458E0,9.690115915E0
3.862795792E0,-7.518864441E-1,1.383123779E-1,9.708361359E0,9.738415878E0
3.872826792E0,-6.993457031E-1,1.480421448E-1,9.805659027E0,9.831680927E0
3.882858792E0,-6.888674927E-1,1.490899658E-1,9.873767395E0,9.898891292E0
3.892889792E0,-6.676116943E-1,1.860630798E-1,9.891280975E0,9.915531462E0
3.902920792E0,-6.903643799E-1,1.968406677E-1,9.883048096E0,9.909086178E0
3.912952792E0,-7.241940308E-1,1.977388000E-1,9.854307861E0,9.882860975E0
3.922983792E0,-7.580236816E-1,2.148033142E-1,9.824669495E0,9.856209771E0
3.933015792E0,-7.622149658E-1,1.971400452E-1,9.839039612E0,9.870488151E0
3.943046792E0,-7.646099854E-1,2.068698120E-1,9.838740234E0,9.870574094E0
3.953078792E0,-7.571255493E-1,2.062710571E-1,9.846973114E0,9.878191452E0
3.963109792E0,-7.339237976E-1,1.811233521E-1,9.874216461E0,9.903110649E0
3.973140792E0,-7.188052368E-1,1.576222229E-1,9.861343231E0,9.888762109E0
3.983172792E0,-7.092251587E-1,1.359173584E-1,9.875563660E0,9.901930693E0
3.993203792E0,-6.941065979E-1,1.356179810E-1,9.854307861E0,9.879653821E0
4.003235792E0,-6.923103333E-1,1.236428833E-1,9.842033386E0,9.867127360E0
4.013266792E0,-6.812333679E-1,1.116677856E-1,9.847571869E0,9.871738464E0
4.023298792E0,-6.836283875E-1,1.254391479E-1,9.828262024E0,9.852807578E0
4.033329792E0,-6.991960144E-1,1.154100037E-1,9.800868988E0,9.826455488E0
4.043360792E0,-7.021897888E-1,1.297801208E-1,9.799521790E0,9.825504602E0
4.053392792E0,-6.821315002E-1,1.426533508E-1,9.807155914E0,9.831884890E0
4.063423792E0,-7.005432129E-1,1.486408997E-1,9.817484436E0,9.843569249E0
4.073455792E0,-6.921606445E-1,1.773811340E-1,9.853409729E0,9.879283057E0
4.083486792E0,-6.860234070E-1,1.820214844E-1,9.901609497E0,9.927015189E0
4.093518792E0,-7.081773376E-1,1.883084106E-1,9.884395294E0,9.911520849E0
4.103549792E0,-7.185058594E-1,2.095642090E-1,9.839488678E0,9.867912914E0
4.113580792E0,-7.491920471E-1,2.353106689E-1,9.815388794E0,9.846751597E0
4.123612792E0,-7.679031372E-1,2.558180237E-1,9.772727509E0,9.806187896E0
4.133643792E0,-7.976911926E-1,2.674937439E-1,9.748178558E0,9.784418703E0
4.143675792E0,-8.201445007E-1,2.567161560E-1,9.727371826E0,9.765259998E0
4.153706792E0,-7.800279236E-1,2.263293457E-1,9.782457275E0,9.816116283E0
4.163738792E0,-7.301815796E-1,1.981878662E-1,9.832902374E0,9.861967992E0
4.173769792E0,-7.117698669E-1,1.836680603E-1,9.842183075E0,9.869595634E0
4.183800792E0,-6.982978821E-1,1.701960754E-1,9.830507355E0,9.856747003E0
4.193832792E0,-7.217990112E-1,1.523831177E-1,9.854906616E0,9.882479387E0
4.203863792E0,-7.164102173E-1,1.360670471E-1,9.896370392E0,9.923200329E0
4.213895792E0,-7.220983887E-1,1.311273193E-1,9.921368408E0,9.948475840E0
4.223926792E0,-7.081773376E-1,1.380130005E-1,9.902357941E0,9.928607934E0
4.233958792E0,-7.182064819E-1,1.606159973E-1,9.875863037E0,9.903246376E0
4.243989792E0,-7.319778442E-1,1.993853760E-1,9.831255798E0,9.860483592E0
4.254020792E0,-7.225474548E-1,1.905537415E-1,9.803713074E0,9.832150100E0
4.264052792E0,-7.241940308E-1,2.209405518E-1,9.814191284E0,9.843354219E0
4.274083792E0,-7.131170654E-1,2.249821472E-1,9.852511597E0,9.880847012E0
4.284115792E0,-6.893165588E-1,2.228865051E-1,9.872120819E0,9.898666838E0
4.294146792E0,-7.024891663E-1,2.165995789E-1,9.858050079E0,9.885421477E0
4.304178792E0,-7.318281555E-1,2.287243652E-1,9.793234863E0,9.823203977E0
4.314209792E0,-7.689509583E-1,2.275268555E-1,9.753417664E0,9.786327716E0
4.324240792E0,-7.851173401E-1,2.335144043E-1,9.740245056E0,9.774625925E0
4.334272792E0,-7.908055115E-1,2.237846375E-1,9.748777313E0,9.783358934E0
4.344304542E0,-7.635621643E-1,2.198927307E-1,9.772278442E0,9.804529869E0
4.354336542E0,-7.384144592E-1,2.221380615E-1,9.818532257E0,9.848765248E0
4.364367542E0,-7.173083496E-1,2.170486450E-1,9.843081207E0,9.871569735E0
4.374399542E0,-7.050338745E-1,2.255809021E-1,9.829609222E0,9.857442720E0
4.384430542E0,-7.200027466E-1,2.056723022E-1,9.830207977E0,9.858686217E0
4.394461542E0,-7.243437195E-1,2.101629639E-1,9.829609222E0,9.858501902E0
4.404493542E0,-7.402107239E-1,2.053729248E-1,9.801916809E0,9.831971475E0
4.414524542E0,-7.622149658E-1,1.939965820E-1,9.799072723E0,9.830586583E0
4.424556542E0,-7.475454712E-1,2.098635864E-1,9.800868988E0,9.831576673E0
4.434587542E0,-7.626640320E-1,2.194436646E-1,9.804910583E0,9.836975323E0
4.444619542E0,-7.548802185E-1,2.058219910E-1,9.821376343E0,9.852494106E0
4.454650542E0,-7.355703735E-1,2.016307068E-1,9.842033386E0,9.871541921E0
4.464681542E0,-7.216493225E-1,2.158511353E-1,9.851463776E0,9.880218013E0
4.474713542E0,-7.120692444E-1,2.149530029E-1,9.843230896E0,9.871293830E0
4.484744542E0,-7.063810730E-1,2.068698120E-1,9.826914825E0,9.854441858E0
4.494776542E0,-6.994953918E-1,2.154020691E-1,9.819729767E0,9.846968292E0
4.504807542E0,-7.071295166E-1,2.127076721E-1,9.818681946E0,9.846410100E0
4.514839542E0,-7.065307617E-1,2.131567383E-1,9.814490662E0,9.842197339E0
4.524870542E0,-7.123686218E-1,2.164498901E-1,9.825268250E0,9.853436750E0
4.534902542E0,-7.122189331E-1,2.174977112E-1,9.820029144E0,9.848224889E0
4.544933542E0,-7.188052368E-1,2.127076721E-1,9.823322296E0,9.851882381E0
4.554964542E0,-7.164102173E-1,1.998344421E-1,9.838889923E0,9.866961656E0
4.564996542E0,-7.216493225E-1,2.107617188E-1,9.835896149E0,9.864585713E0
4.575027542E0,-7.192543030E-1,2.140548706E-1,9.835596771E0,9.864183194E0
4.585059542E0,-7.168592834E-1,2.080673218E-1,9.824669495E0,9.852984823E0
4.595090542E0,-7.209008789E-1,2.052232361E-1,9.824669495E0,9.853220049E0
4.605122542E0,-7.246430969E-1,2.001338196E-1,9.818232880E0,9.846972024E0
4.615153542E0,-7.186555481E-1,1.904040527E-1,9.821076965E0,9.849176222E0
4.625184542E0,-7.180567932E-1,1.993853760E-1,9.826316071E0,9.854534368E0
4.635216542E0,-7.197033691E-1,1.908531189E-1,9.831106110E0,9.859261899E0
4.645247542E0,-7.432044983E-1,1.875599670E-1,9.819131012E0,9.849003274E0
4.655279542E0,-7.429051208E-1,1.784289551E-1,9.822124786E0,9.851795787E0
4.665310542E0,-7.605683899E-1,1.892065430E-1,9.851763153E0,9.882889285E0
4.675342542E0,-7.382647705E-1,1.697470093E-1,9.934690704E0,9.963529912E0
4.685373542E0,-7.201524353E-1,1.848655701E-1,9.912536774E0,9.940381285E0
4.695404542E0,-7.226971436E-1,1.980381775E-1,9.797575836E0,9.826189625E0
4.705436542E0,-7.644602966E-1,2.237846375E-1,9.712402954E0,9.745011557E0
4.715467542E0,-7.828720093E-1,2.354603577E-1,9.725575562E0,9.759874495E0
4.725499542E0,-7.604187012E-1,2.263293457E-1,9.830507355E0,9.862471112E0
4.735530542E0,-7.228468323E-1,2.059716797E-1,9.798324280E0,9.827109980E0
4.745562542E0,-7.128176880E-1,2.179467773E-1,9.737700348E0,9.766187481E0
4.755593542E0,-7.229965210E-1,2.296224976E-1,9.801318054E0,9.830629993E0
4.765624542E0,-7.123686218E-1,2.091151428E-1,9.925410004E0,9.953138296E0
4.775656542E0,-6.649172974E-1,1.740879822E-1,1.002405487E1,1.004759164E1
4.785687542E0,-6.358776855E-1,1.657054138E-1,9.965975647E0,9.987615797E0
4.795719542E0,-6.548881531E-1,1.880090332E-1,9.841434631E0,9.864991713E0
4.805750542E0,-7.322772217E-1,1.957928467E-1,9.741292877E0,9.770739567E0
4.815782542E0,-7.704478455E-1,1.889071655E-1,9.657916260E0,9.690439736E0
4.825813542E0,-7.399113464E-1,1.655557251E-1,9.648036804E0,9.677783407E0
4.835844542E0,-7.093748474E-1,1.341210938E-1,9.718540192E0,9.745318086E0
4.845876542E0,-6.632707214E-1,1.236428833E-1,9.812844086E0,9.836011624E0
4.855907542E0,-6.289920044E-1,1.278341675E-1,9.897567902E0,9.918357872E0
4.865939542E0,-6.192622375E-1,1.523831177E-1,9.954449615E0,9.974857066E0
4.875970542E0,-6.611750793E-1,1.639091492E-1,9.916428680E0,9.939797607E0
4.886002542E0,-6.972500610E-1,1.805245972E-1,9.862241364E0,9.888506029E0
4.896033542E0,-7.134164429E-1,1.956431580E-1,9.823921051E0,9.851734065E0
4.906065542E0,-7.238946533E-1,2.263293457E-1,9.796378326E0,9.825694721E0
4.916096542E0,-7.438032532E-1,2.490820312E-1,9.794881439E0,9.826239746E0
4.926127542E0,-7.195536804E-1,2.612068176E-1,9.818831635E0,9.848626359E0
4.936159542E0,-7.167095947E-1,2.519261169E-1,9.842183075E0,9.871459218E0
4.946190542E0,-7.054829407E-1,2.368075562E-1,9.858349457E0,9.886396614E0
4.956222542E0,-6.979985046E-1,2.040257263E-1,9.866582336E0,9.893345006E0
4.966253542E0,-6.951544189E-1,1.895059204E-1,9.863289185E0,9.889571563E0
4.976285542E0,-6.866221619E-1,1.543290710E-1,9.846374359E0,9.871492059E0
4.986316542E0,-6.753955078E-1,1.381626892E-1,9.856702881E0,9.880781331E0
4.996347542E0,-6.812333679E-1,1.270857239E-1,9.830507355E0,9.854902563E0
5.006379542E0,-6.598278809E-1,1.112187195E-1,9.822873230E0,9.845637660E0
5.016410542E0,-6.629713440E-1,1.206491089E-1,9.828711090E0,9.851784047E0
5.026442542E0,-6.394702148E-1,1.095721436E-1,9.837991791E0,9.859361576E0
5.036473542E0,-6.390211487E-1,1.258882141E-1,9.845775604E0,9.867294113E0
5.046505542E0,-6.333329773E-1,1.275347900E-1,9.859846344E0,9.880989106E0
5.056536542E0,-6.454577637E-1,1.695973206E-1,9.854307861E0,9.876880196E0
5.066567542E0,-6.571334839E-1,1.924996948E-1,9.899364166E0,9.923018263E0
5.076599542E0,-6.881190491E-1,2.071691895E-1,9.877359924E0,9.903467371E0
5.086630542E0,-7.162605286E-1,2.254312134E-1,9.809401245E0,9.838099469E0
5.096662542E0,-7.309300232E-1,2.393522644E-1,9.809401245E0,9.839507152E0
5.106693542E0,-7.620652771E-1,2.558180237E-1,9.754315796E0,9.787382847E0
5.116725542E0,-7.842192078E-1,2.481838989E-1,9.731712799E0,9.766413314E0
5.126756542E0,-7.634124756E-1,2.318678284E-1,9.788893890E0,9.821354535E0
5.136787542E0,-7.206015015E-1,2.034269714E-1,9.817783813E0,9.846295144E0
5.146819542E0,-6.773414612E-1,1.669029236E-1,9.828411713E0,9.853137817E0
5.156850542E0,-6.842271423E-1,1.576222229E-1,9.828711090E0,9.853759346E0
5.166882542E0,-7.021897888E-1,1.669029236E-1,9.815987549E0,9.842486406E0
5.176913542E0,-6.812333679E-1,1.426533508E-1,9.847721558E0,9.872286906E0
5.186945542E0,-6.782395935E-1,1.323248291E-1,9.859696655E0,9.883882685E0
5.196976542E0,-6.804849243E-1,1.291813660E-1,9.871222687E0,9.895493160E0
5.207008542E0,-6.743476868E-1,1.425036621E-1,9.870773621E0,9.894807930E0
5.217039542E0,-6.884184265E-1,1.631607056E-1,9.892927551E0,9.918193227E0
5.227070542E0,-6.891668701E-1,1.887574768E-1,9.877359924E0,9.903172190E0
5.237102542E0,-7.090754700E-1,2.088157654E-1,9.839189301E0,9.866916344E0
5.247133542E0,-7.216493225E-1,2.058219910E-1,9.794432373E0,9.823138294E0
5.257165542E0,-7.255412292E-1,2.146536255E-1,9.796677704E0,9.825852649E0
5.267196542E0,-7.273374939E-1,2.327659607E-1,9.791887665E0,9.821622262E0
5.277228542E0,-7.167095947E-1,2.089654541E-1,9.818083191E0,9.846425582E0
5.287259542E0,-7.108717346E-1,2.086660767E-1,9.834249573E0,9.862116650E0
5.297290542E0,-7.330256653E-1,1.995350647E-1,9.845476227E0,9.874742680E0
5.307322542E0,-7.463479614E-1,1.869612122E-1,9.807155914E0,9.837291136E0
5.317353542E0,-7.544311523E-1,1.773811340E-1,9.800120544E0,9.830716816E0
5.327385542E0,-7.385641479E-1,1.685494995E-1,9.790690155E0,9.819954157E0
5.337416542E0,-7.382647705E-1,1.698966980E-1,9.787846069E0,9.817119253E0
5.347447917E0,-7.301815796E-1,1.782792664E-1,9.822573853E0,9.851289546E0
5.357478917E0,-7.069798279E-1,1.791773987E-1,9.844877472E0,9.871855826E0
5.367510917E0,-7.114704895E-1,2.023791504E-1,9.858648834E0,9.886359513E0
5.377541917E0,-7.226971436E-1,1.947450256E-1,9.841284943E0,9.869706485E0
5.387572917E0,-7.351213074E-1,1.938468933E-1,9.833950195E0,9.863293385E0
5.397604917E0,-7.518864441E-1,1.929487610E-1,9.827363892E0,9.857973600E0
5.407635917E0,-7.403604126E-1,1.890568542E-1,9.803264008E0,9.832998588E0
5.417667917E0,-7.348219299E-1,1.922003174E-1,9.810898132E0,9.840255403E0
5.427698917E0,-7.515870667E-1,1.927990723E-1,9.841135254E0,9.871676539E0
5.437730917E0,-7.137158203E-1,1.911524963E-1,9.835746460E0,9.863459737E0
5.447761917E0,-7.029382324E-1,1.939965820E-1,9.837692413E0,9.864681893E0
5.457792917E0,-7.132667542E-1,1.916015625E-1,9.842033386E0,9.869705254E0
5.467824917E0,-6.960525513E-1,2.002835083E-1,9.833650818E0,9.860288588E0
5.477855917E0,-6.935078430E-1,1.983375549E-1,9.841883698E0,9.868280784E0
5.487887917E0,-6.878196716E-1,1.817221069E-1,9.825717316E0,9.851438453E0
5.497918917E0,-7.035369873E-1,1.899549866E-1,9.835596771E0,9.862556009E0
5.507950917E0,-6.873706055E-1,1.916015625E-1,9.846673737E0,9.872495793E0
5.517981917E0,-6.953041077E-1,1.835183716E-1,9.838590546E0,9.864836072E0
5.528012917E0,-7.132667542E-1,1.719923401E-1,9.848320312E0,9.875613591E0
5.538044917E0,-7.375163269E-1,1.806742859E-1,9.828860779E0,9.858147784E0
5.548075917E0,-7.277865601E-1,1.700463867E-1,9.820029144E0,9.848429390E0
5.558107917E0,-7.303312683E-1,1.797761536E-1,9.806706848E0,9.835507228E0
5.568138917E0,-7.370672607E-1,1.823208618E-1,9.812245331E0,9.841578505E0
5.578170917E0,-7.414082336E-1,1.704954529E-1,9.840386810E0,9.869750121E0
5.588201917E0,-7.259902954E-1,1.746867371E-1,9.906249847E0,9.934352692E0
5.598233917E0,-7.195536804E-1,1.709445190E-1,9.907746735E0,9.935312017E0
5.608264917E0,-7.129673767E-1,1.922003174E-1,9.835596771E0,9.863276701E0
5.618295917E0,-7.433541870E-1,1.992356873E-1,9.779762878E0,9.809996548E0
5.628327917E0,-7.710466003E-1,1.989363098E-1,9.785600739E0,9.817946340E0
5.638358917E0,-7.737409973E-1,1.871109009E-1,9.829758911E0,9.861939255E0
5.648390917E0,-7.361691284E-1,1.984872437E-1,9.833501129E0,9.863016102E0
5.658421917E0,-7.297325134E-1,1.939965820E-1,9.748777313E0,9.777975420E0
5.668453917E0,-7.438032532E-1,2.029779053E-1,9.781110077E0,9.811450333E0
5.678484917E0,-7.238946533E-1,1.978884888E-1,9.845925293E0,9.874483693E0
5.688515917E0,-6.920109558E-1,1.752854919E-1,9.996362457E0,1.002181952E1
5.698547917E0,-6.497987366E-1,1.589694214E-1,9.947114868E0,9.969583937E0
5.708578917E0,-6.517446899E-1,1.523831177E-1,9.843829651E0,9.866558364E0
5.718610917E0,-7.306306458E-1,1.562750244E-1,9.785451050E0,9.813933731E0
5.728641917E0,-7.686515808E-1,1.478924561E-1,9.747729492E0,9.779106692E0
5.738673917E0,-7.430548096E-1,1.425036621E-1,9.673034821E0,9.702579058E0
5.748704917E0,-7.226971436E-1,1.451980591E-1,9.644144897E0,9.672275040E0
5.758735917E0,-7.075785828E-1,1.293310547E-1,9.722432098E0,9.749004046E0
5.768767917E0,-6.682104492E-1,1.234931946E-1,9.834399261E0,9.857847869E0
5.778798917E0,-6.095324707E-1,1.386117554E-1,9.909093933E0,9.928790743E0
5.788830917E0,-6.038442993E-1,1.657054138E-1,9.913883972E0,9.933638892E0
5.798861917E0,-6.442602539E-1,1.838177490E-1,9.900112610E0,9.922756166E0
5.808893917E0,-6.915618896E-1,2.058219910E-1,9.848619690E0,9.875015460E0
5.818924917E0,-7.140151978E-1,2.173480225E-1,9.838590546E0,9.866859774E0
5.828956917E0,-7.340734863E-1,2.212399292E-1,9.809850311E0,9.839764942E0
5.838987917E0,-7.464976501E-1,2.374063110E-1,9.813742218E0,9.844955907E0
5.849018917E0,-7.339237976E-1,2.212399292E-1,9.852661285E0,9.882435209E0
5.859050917E0,-7.177574158E-1,2.029779053E-1,9.874216461E0,9.902349542E0
5.869081917E0,-7.155120850E-1,1.760339355E-1,9.878108368E0,9.905552504E0
5.879113917E0,-7.023394775E-1,1.565744019E-1,9.871072998E0,9.897266209E0
5.889144917E0,-6.821315002E-1,1.363664246E-1,9.858948212E0,9.883458859E0
5.899176917E0,-6.893165588E-1,1.285826111E-1,9.839937744E0,9.864890553E0
5.909207917E0,-6.719526672E-1,1.154100037E-1,9.834698639E0,9.858302956E0
5.919238917E0,-6.569837952E-1,1.074765015E-1,9.847571869E0,9.870048157E0
5.929270917E0,-6.535409546E-1,8.726852417E-2,9.853260040E0,9.875295692E0
5.939301917E0,-6.523434448E-1,9.160949707E-2,9.832153931E0,9.854196831E0
5.949333917E0,-6.372248840E-1,8.592132568E-2,9.823322296E0,9.844343501E0
5.959364917E0,-6.527925110E-1,1.026864624E-1,9.845027161E0,9.867180061E0
5.969396917E0,-6.524931335E-1,1.140628052E-1,9.847272491E0,9.869525477E0
5.979427917E0,-6.524931335E-1,1.311273193E-1,9.887239380E0,9.909613727E0
5.989459917E0,-6.619235229E-1,1.546284485E-1,9.907896423E0,9.931186447E0
5.999490917E0,-6.725514221E-1,1.725910950E-1,9.873917084E0,9.898300444E0
6.009521917E0,-7.096742249E-1,1.974394226E-1,9.862690430E0,9.890160886E0
6.019553917E0,-7.147636414E-1,2.145039368E-1,9.812245331E0,9.840582169E0
6.029584917E0,-7.331753540E-1,2.417472839E-1,9.742340698E0,9.772880339E0
6.039616917E0,-7.589218140E-1,2.246827698E-1,9.741741943E0,9.773841658E0
6.049647917E0,-7.334747314E-1,1.962419128E-1,9.766739960E0,9.796208731E0
6.059679917E0,-6.807843018E-1,1.619631958E-1,9.807305603E0,9.832239955E0
6.069710917E0,-6.746470642E-1,1.610650635E-1,9.827064514E0,9.851511944E0
6.079741917E0,-6.737489319E-1,1.466949463E-1,9.849966888E0,9.874072348E0
6.089773917E0,-6.815327454E-1,1.507365417E-1,9.878707123E0,9.903335943E0
6.099804917E0,-6.840774536E-1,1.368154907E-1,9.855505371E0,9.880165310E0
6.109836917E0,-6.704557800E-1,1.374142456E-1,9.849517822E0,9.873266681E0
6.119867917E0,-6.810836792E-1,1.450483704E-1,9.873617706E0,9.898143291E0
6.129899917E0,-6.798861694E-1,1.511856079E-1,9.855056305E0,9.879637497E0
6.139930917E0,-6.899153137E-1,1.648072815E-1,9.831405487E0,9.856960913E0
6.149962917E0,-6.888674927E-1,1.667532349E-1,9.809700623E0,9.835271799E0
6.159993917E0,-7.002438354E-1,1.648072815E-1,9.801767120E0,9.828130115E0
6.170024917E0,-6.927593994E-1,1.664538574E-1,9.812844086E0,9.838675293E0
6.180056917E0,-6.935078430E-1,1.878593445E-1,9.827812958E0,9.854042409E0
6.190087917E0,-7.059320068E-1,1.713935852E-1,9.829160156E0,9.855967996E0
6.200119917E0,-7.267387390E-1,1.710942078E-1,9.804611206E0,9.832996660E0
6.210150917E0,-7.448510742E-1,1.645079041E-1,9.791288910E0,9.820957412E0
6.220182917E0,-7.577243042E-1,1.604663086E-1,9.786498871E0,9.817100168E0
6.230213917E0,-7.484436035E-1,1.496887207E-1,9.792935486E0,9.822635083E0
6.240244917E0,-7.424560547E-1,1.540296936E-1,9.781559143E0,9.810905433E0
6.250276917E0,-7.360194397E-1,1.607656860E-1,9.779164124E0,9.808140557E0
6.260307917E0,-7.274871826E-1,1.565744019E-1,9.785151672E0,9.813406462E0
6.270339917E0,-7.252418518E-1,1.655557251E-1,9.817035370E0,9.845179932E0
6.280370917E0,-7.125183105E-1,1.743873596E-1,9.813143463E0,9.840522238E0
6.290402917E0,-7.129673767E-1,1.589694214E-1,9.817484436E0,9.844622614E0
6.300433917E0,-7.300318909E-1,1.730401611E-1,9.802814941E0,9.831483623E0
6.310464917E0,-7.330256653E-1,1.902543640E-1,9.810299377E0,9.839486634E0
6.320496917E0,-7.439529419E-1,1.872605896E-1,9.822573853E0,9.852486468E0
6.330527917E0,-7.577243042E-1,1.779798889E-1,9.824370117E0,9.855154548E0
6.340559792E0,-7.453001404E-1,1.715432739E-1,9.828711090E0,9.858420821E0
6.350590792E0,-7.415579224E-1,1.597178650E-1,9.812694397E0,9.841970802E0
6.360622792E0,-7.381150818E-1,1.564247131E-1,9.811796265E0,9.840763614E0
6.370653792E0,-7.232958984E-1,1.778302002E-1,9.788444824E0,9.816742464E0
6.380685792E0,-7.210505676E-1,1.727407837E-1,9.781409454E0,9.809471148E0
6.390716792E0,-7.048841858E-1,1.697470093E-1,9.808503113E0,9.835263549E0
6.400747792E0,-7.054829407E-1,1.556762695E-1,9.805359650E0,9.831938727E0
6.410779792E0,-6.906637573E-1,1.540296936E-1,9.808203735E0,9.833697274E0
6.420810792E0,-6.864724731E-1,1.676513672E-1,9.804760895E0,9.830192655E0
6.430842792E0,-7.108717346E-1,1.767823792E-1,9.802814941E0,9.830146052E0
6.440873792E0,-7.234455872E-1,1.715432739E-1,9.789342957E0,9.817537172E0
6.450905792E0,-7.207511902E-1,1.692979431E-1,9.797276459E0,9.825210943E0
6.460936792E0,-7.279362488E-1,1.704954529E-1,9.869426422E0,9.897703662E0
6.470967792E0,-7.259902954E-1,1.681004333E-1,9.886640625E0,9.914685195E0
6.480999792E0,-7.185058594E-1,1.799258423E-1,9.830058289E0,9.857924220E0
6.491030792E0,-7.445516968E-1,2.020797729E-1,9.782906342E0,9.813279266E0
6.501062792E0,-7.858657837E-1,2.077679443E-1,9.755064240E0,9.788872809E0
6.511093792E0,-7.976911926E-1,2.079176331E-1,9.784403229E0,9.819067549E0
6.521125792E0,-7.749385071E-1,2.038760376E-1,9.840686188E0,9.873256797E0
6.531156792E0,-7.508386230E-1,1.871109009E-1,9.803413696E0,9.833905085E0
6.541188792E0,-7.488926697E-1,1.868115234E-1,9.717342682E0,9.747947865E0
6.551219792E0,-7.632627869E-1,1.886077881E-1,9.730664978E0,9.762375935E0
6.561250792E0,-7.613168335E-1,1.697470093E-1,9.903405762E0,9.934075853E0
6.571282792E0,-7.111711121E-1,1.356179810E-1,9.975256348E0,1.000149468E1
6.581313792E0,-6.851252747E-1,1.260379028E-1,9.887688446E0,9.912197789E0
6.591345792E0,-7.131170654E-1,1.213975525E-1,9.881700897E0,9.908142406E0
6.601376792E0,-7.421566772E-1,1.202000427E-1,9.854906616E0,9.883543342E0
6.611408792E0,-7.583230591E-1,1.478924561E-1,9.771529999E0,9.802026554E0
6.621439792E0,-7.676037598E-1,1.489402771E-1,9.651779022E0,9.683400076E0
6.631470792E0,-7.804769897E-1,1.475930786E-1,9.636810150E0,9.669490055E0
6.641502792E0,-7.351213074E-1,1.450483704E-1,9.694889374E0,9.723801846E0
6.651533792E0,-6.897656250E-1,1.511856079E-1,9.775421906E0,9.800893181E0
6.661565792E0,-6.471043396E-1,1.724414062E-1,9.854756927E0,9.877485215E0
6.671596792E0,-6.445596313E-1,1.933978271E-1,9.894723816E0,9.917581320E0
6.681628792E0,-6.791377258E-1,2.143542480E-1,9.881551208E0,9.907180733E0
6.691659792E0,-7.361691284E-1,2.165995789E-1,9.862840118E0,9.892647551E0
6.701691792E0,-7.503895569E-1,2.221380615E-1,9.862989807E0,9.893987959E0
6.711722792E0,-7.620652771E-1,2.155517578E-1,9.837692413E0,9.869518634E0
6.721753792E0,-7.605683899E-1,1.951940918E-1,9.852361908E0,9.883602591E0
6.731785792E0,-7.491920471E-1,1.689985657E-1,9.869875488E0,9.899711682E0
6.741816792E0,-7.322772217E-1,1.540296936E-1,9.889634399E0,9.917904195E0
6.751848792E0,-6.979985046E-1,1.378633118E-1,9.869426422E0,9.895038459E0
6.761879792E0,-6.975494385E-1,1.333726501E-1,9.845775604E0,9.871355567E0
6.771911792E0,-6.959028625E-1,1.303788757E-1,9.840237122E0,9.865675144E0
6.781942792E0,-6.930587769E-1,1.164578247E-1,9.823022919E0,9.848130389E0
6.791973792E0,-6.888674927E-1,1.131646729E-1,9.824220428E0,9.848992420E0
6.802005792E0,-6.873706055E-1,1.049317932E-1,9.817035370E0,9.841629564E0
6.812036792E0,-6.926097107E-1,1.140628052E-1,9.835297394E0,9.860314060E0
6.822068792E0,-6.905140686E-1,1.133143616E-1,9.838440857E0,9.863293989E0
6.832099792E0,-6.891668701E-1,1.179547119E-1,9.836494904E0,9.861313111E0
6.842131792E0,-6.990463257E-1,1.113684082E-1,9.859247589E0,9.884626028E0
6.852162792E0,-7.006929016E-1,1.133143616E-1,9.886041870E0,9.911490026E0
6.862194792E0,-7.231462097E-1,1.457968140E-1,9.890532532E0,9.918005390E0
6.872225792E0,-7.460485840E-1,1.654060364E-1,9.880054321E0,9.909562101E0
6.882256792E0,-7.500901794E-1,1.957928467E-1,9.858648834E0,9.889081199E0
6.892288792E0,-7.423063660E-1,2.207908630E-1,9.804611206E0,9.835149630E0
6.902319792E0,-7.803273010E-1,2.389031982E-1,9.783505096E0,9.817482234E0
6.912351792E0,-7.818241882E-1,2.234852600E-1,9.770033112E0,9.803812612E0
6.922382792E0,-7.512876892E-1,2.016307068E-1,9.750423889E0,9.781403486E0
6.932414792E0,-7.240443420E-1,1.845661926E-1,9.811197510E0,9.839608806E0
6.942445792E0,-6.982978821E-1,1.532812500E-1,9.819729767E0,9.845720277E0
6.952477792E0,-6.839277649E-1,1.486408997E-1,9.851014709E0,9.875846400E0
6.962508792E0,-6.896159363E-1,1.278341675E-1,9.911189575E0,9.935974563E0
6.972539792E0,-6.855743408E-1,1.124162292E-1,9.937235413E0,9.961490713E0
6.982571792E0,-6.914122009E-1,1.121168518E-1,9.923464050E0,9.948153586E0
6.992602792E0,-7.086264038E-1,1.375639343E-1,9.862540741E0,9.888922342E0
7.002634792E0,-7.099736023E-1,1.507365417E-1,9.808802490E0,9.835618451E0
7.012665792E0,-7.340734863E-1,1.704954529E-1,9.788145447E0,9.817113826E0
7.022697792E0,-7.264393616E-1,1.802252197E-1,9.799072723E0,9.827615251E0
7.032728792E0,-7.191046143E-1,1.972897339E-1,9.817185059E0,9.845463786E0
7.042759792E0,-7.008425903E-1,1.833686829E-1,9.818681946E0,9.845370463E0
7.052791792E0,-7.065307617E-1,1.814227295E-1,9.804012451E0,9.831111843E0
7.062822792E0,-7.276368713E-1,1.764830017E-1,9.796078949E0,9.824650856E0
7.072854792E0,-7.387138367E-1,1.621128845E-1,9.802665253E0,9.831796620E0
7.082885792E0,-7.518864441E-1,1.655557251E-1,9.781708832E0,9.811960538E0
7.092917792E0,-7.671546936E-1,1.597178650E-1,9.775421906E0,9.806778755E0
7.102948792E0,-7.574249268E-1,1.642085266E-1,9.768685913E0,9.799381686E0
7.112980792E0,-7.596702576E-1,1.555265808E-1,9.797426147E0,9.828064231E0
7.123011792E0,-7.411088562E-1,1.592687988E-1,9.832004242E0,9.861182297E0
7.133042792E0,-7.164102173E-1,1.615141296E-1,9.839788055E0,9.867155588E0
7.143074792E0,-7.361691284E-1,1.673519897E-1,9.849218445E0,9.878109923E0
7.153105792E0,-7.485932922E-1,1.661544800E-1,9.840686188E0,9.870516900E0
7.163137792E0,-7.572752380E-1,1.721420288E-1,9.816286926E0,9.846958296E0
7.173168792E0,-7.735913086E-1,1.775308228E-1,9.812844086E0,9.844890541E0
7.183200792E0,-7.767347717E-1,1.796264648E-1,9.811047821E0,9.843385694E0
7.193231792E0,-7.661068726E-1,1.799258423E-1,9.807455292E0,9.838977200E0
7.203262792E0,-7.559280396E-1,1.767823792E-1,9.813742218E0,9.844400212E0
7.213294792E0,-7.411088562E-1,1.689985657E-1,9.830956421E0,9.860299539E0
7.223325792E0,-7.345225525E-1,1.618135071E-1,9.834848328E0,9.863566729E0
7.233357792E0,-7.209008789E-1,1.703457642E-1,9.837093658E0,9.864944369E0
7.243388792E0,-6.999444580E-1,1.552272034E-1,9.841734009E0,9.867813640E0
7.253420792E0,-7.186555481E-1,1.564247131E-1,9.824968872E0,9.852458974E0
7.263451792E0,-7.123686218E-1,1.716929626E-1,9.818831635E0,9.846136409E0
7.273483792E0,-7.038363647E-1,1.657054138E-1,9.809101868E0,9.835716718E0
7.283514792E0,-7.102729797E-1,1.686991882E-1,9.795629883E0,9.822795525E0
7.293545792E0,-7.080276489E-1,1.779798889E-1,9.818532257E0,9.845636377E0
7.303577792E0,-7.125183105E-1,1.830693054E-1,9.817035370E0,9.844560943E0
7.313608792E0,-7.366181946E-1,1.916015625E-1,9.822573853E0,9.852018809E0
7.323640792E0,-7.173083496E-1,1.901046753E-1,9.831555176E0,9.859520690E0
7.333671792E0,-7.342231750E-1,1.814227295E-1,9.827663269E0,9.856721727E0
7.343704167E0,-7.280859375E-1,1.922003174E-1,9.835896149E0,9.864679576E0
7.353735167E0,-7.298822021E-1,1.948947144E-1,9.829010468E0,9.857999734E0
7.363766167E0,-7.346722412E-1,1.749861145E-1,9.821376343E0,9.850370384E0
7.373798167E0,-7.464976501E-1,1.799258423E-1,9.837542725E0,9.867465678E0
7.383829167E0,-7.367678833E-1,1.775308228E-1,9.828411713E0,9.857586971E0
7.393861167E0,-7.487429810E-1,1.763333130E-1,9.833650818E0,9.863690886E0
7.403892167E0,-7.586224365E-1,1.637594604E-1,9.818083191E0,9.848709698E0
7.413924167E0,-7.581733704E-1,1.583706665E-1,9.806108093E0,9.836649026E0
7.423955167E0,-7.646099854E-1,1.727407837E-1,9.865833893E0,9.896926099E0
7.433987167E0,-7.267387390E-1,1.532812500E-1,9.911938019E0,9.939726336E0
7.444018167E0,-7.258406067E-1,1.709445190E-1,9.886191559E0,9.914275069E0
7.454049167E0,-7.334747314E-1,1.868115234E-1,9.793683929E0,9.822887999E0
7.464081167E0,-7.565267944E-1,1.953437805E-1,9.764195251E0,9.795407133E0
7.474112167E0,-7.854167175E-1,2.020797729E-1,9.789642334E0,9.823177321E0
7.484144167E0,-7.749385071E-1,1.911524963E-1,9.837093658E0,9.869421493E0
7.494175167E0,-7.417076111E-1,1.838177490E-1,9.767039337E0,9.796886064E0
7.504207167E0,-7.438032532E-1,1.754351807E-1,9.711804199E0,9.741825372E0
7.514238167E0,-7.646099854E-1,1.868115234E-1,9.783355408E0,9.814966633E0
7.524270167E0,-7.322772217E-1,1.737886047E-1,9.963430939E0,9.991816075E0
7.534301167E0,-6.616241455E-1,1.507365417E-1,1.000160156E1,1.002459485E1
7.544332167E0,-6.616241455E-1,1.344204712E-1,9.866282959E0,9.889355631E0
7.554364167E0,-7.229965210E-1,1.478924561E-1,9.814191284E0,9.841897516E0
7.564395167E0,-7.664062500E-1,1.475930786E-1,9.758357391E0,9.789519970E0
7.574427167E0,-7.601193237E-1,1.363664246E-1,9.679022369E0,9.709781214E0
7.584458167E0,-7.370672607E-1,1.251397705E-1,9.643396454E0,9.672332877E0
7.594490167E0,-7.304809570E-1,1.128652954E-1,9.708061981E0,9.736159840E0
7.604521167E0,-6.988966370E-1,1.131646729E-1,9.823022919E0,9.848504557E0
7.614552167E0,-6.602769470E-1,1.425036621E-1,9.883946228E0,9.907000857E0
7.624584167E0,-6.584806824E-1,1.664538574E-1,9.927505646E0,9.950712137E0
7.634615167E0,-6.893165588E-1,1.820214844E-1,9.891580353E0,9.917240091E0
7.644647167E0,-7.212002563E-1,2.161505127E-1,9.849817200E0,9.878549981E0
7.654678167E0,-7.472460938E-1,2.260299683E-1,9.824220428E0,9.855190171E0
7.664710167E0,-7.601193237E-1,2.347119141E-1,9.815388794E0,9.847574739E0
7.674741167E0,-7.699987793E-1,2.395019531E-1,9.833201752E0,9.866210823E0
7.684773167E0,-7.643106079E-1,2.278262329E-1,9.857900391E0,9.890109990E0
7.694804167E0,-7.309300232E-1,2.064207458E-1,9.876461792E0,9.905622936E0
7.704835167E0,-7.258406067E-1,1.890568542E-1,9.882149963E0,9.910573898E0
7.714867167E0,-7.192543030E-1,1.652563477E-1,9.866582336E0,9.894143895E0
7.724898167E0,-6.965016174E-1,1.766326904E-1,9.838889923E0,9.865093437E0
7.734930167E0,-7.105723572E-1,1.371148682E-1,9.818831635E0,9.845464348E0
7.744961167E0,-6.890171814E-1,1.187031555E-1,9.817484436E0,9.842349098E0
7.754993167E0,-6.703060913E-1,1.049317932E-1,9.811496887E0,9.834927153E0
7.765024167E0,-6.825805664E-1,1.044827271E-1,9.815239105E0,9.839499559E0
7.775056167E0,-6.762936401E-1,1.052311707E-1,9.821825409E0,9.845643760E0
7.785087167E0,-6.596781921E-1,1.064286804E-1,9.832902374E0,9.855580728E0
7.795118167E0,-6.602769470E-1,1.308279419E-1,9.850415955E0,9.873387265E0
7.805150167E0,-6.851252747E-1,1.448986816E-1,9.845775604E0,9.870647877E0
7.815181167E0,-6.822811890E-1,1.707948303E-1,9.897867279E0,9.922824959E0
7.825213167E0,-6.858737183E-1,1.959425354E-1,9.915380859E0,9.941005675E0
7.835244167E0,-7.012916565E-1,2.077679443E-1,9.868378601E0,9.895447121E0
7.845276167E0,-7.388635254E-1,2.198927307E-1,9.821975098E0,9.852180822E0
7.855307167E0,-7.729925537E-1,2.547702026E-1,9.775122528E0,9.808947231E0
7.865339167E0,-7.813751221E-1,2.636018372E-1,9.737700348E0,9.772555504E0
7.875370167E0,-8.054750061E-1,2.568658447E-1,9.704020386E0,9.740779317E0
7.885401167E0,-7.819738770E-1,2.314187622E-1,9.759554901E0,9.793566748E0
7.895433167E0,-7.286846924E-1,1.898052979E-1,9.831106110E0,9.859901357E0
7.905464167E0,-6.915618896E-1,1.857637024E-1,9.836494904E0,9.862524930E0
7.915496167E0,-6.777905273E-1,1.642085266E-1,9.812395020E0,9.837146967E0
7.925527167E0,-6.991960144E-1,1.481918335E-1,9.853559418E0,9.879446801E0
7.935559167E0,-7.011419678E-1,1.293310547E-1,9.879904633E0,9.905596505E0
7.945590167E0,-6.908134460E-1,1.246907043E-1,9.895472260E0,9.920339824E0
7.955621167E0,-6.872209167E-1,1.457968140E-1,9.884844360E0,9.909776856E0
7.965653167E0,-6.984475708E-1,1.552272034E-1,9.855056305E0,9.880994852E0
7.975684167E0,-7.102729797E-1,1.869612122E-1,9.843829651E0,9.871191640E0
7.985716167E0,-7.087760925E-1,2.130070496E-1,9.827812958E0,9.855640166E0
7.995747167E0,-7.143145752E-1,2.104623413E-1,9.825567627E0,9.853746440E0
8.005779167E0,-7.078779602E-1,2.103126526E-1,9.845176849E0,9.872832917E0
8.015810167E0,-6.975494385E-1,2.074685669E-1,9.864786072E0,9.891593535E0
8.025842167E0,-7.086264038E-1,2.032772827E-1,9.857750702E0,9.885278040E0
8.035873167E0,-7.132667542E-1,1.666035461E-1,9.827214203E0,9.854473360E0
8.045904167E0,-7.442523193E-1,1.703457642E-1,9.825268250E0,9.854888400E0
8.055936167E0,-7.731422424E-1,1.583706665E-1,9.794282684E0,9.826026842E0
8.065967167E0,-7.626640320E-1,1.562750244E-1,9.769584045E0,9.800553593E0
8.075999167E0,-7.586224365E-1,1.567240906E-1,9.774972839E0,9.805619024E0
8.086030167E0,-7.447013855E-1,1.564247131E-1,9.804611206E0,9.834096285E0
8.096062167E0,-7.195536804E-1,1.468446350E-1,9.841434631E0,9.868797113E0
8.106093167E0,-7.159611511E-1,1.487905884E-1,9.861343231E0,9.888418950E0
8.116125167E0,-7.204518127E-1,1.737886047E-1,9.858798523E0,9.886615276E0
8.126156167E0,-7.346722412E-1,1.782792664E-1,9.838889923E0,9.867891452E0
8.136187167E0,-7.469467163E-1,1.826202393E-1,9.812245331E0,9.842328890E0
8.146219167E0,-7.574249268E-1,1.803749084E-1,9.806856537E0,9.837716339E0
8.156250167E0,-7.788304138E-1,1.853146362E-1,9.787397003E0,9.820084441E0
8.166282167E0,-7.671546936E-1,1.892065430E-1,9.806407471E0,9.838188498E0
8.176313167E0,-7.529342651E-1,1.857637024E-1,9.813143463E0,9.843739269E0
8.186345167E0,-7.430548096E-1,1.730401611E-1,9.837542725E0,9.867082659E0
8.196376167E0,-7.292834473E-1,1.727407837E-1,9.837243347E0,9.865751385E0
8.206407167E0,-7.092251587E-1,1.568737793E-1,9.867929535E0,9.894626977E0
8.216439167E0,-7.009922791E-1,1.739382935E-1,9.850415955E0,9.876858771E0
8.226470167E0,-7.072792053E-1,1.538800049E-1,9.841434631E0,9.868016950E0
8.236502167E0,-6.929090881E-1,1.598675537E-1,9.830657043E0,9.856343061E0
8.246533167E0,-7.027885437E-1,1.451980591E-1,9.832004242E0,9.858159140E0
8.256565167E0,-7.128176880E-1,1.513352966E-1,9.819131012E0,9.846133518E0
8.266596167E0,-7.152127075E-1,1.628613281E-1,9.807455292E0,9.834847855E0
8.276628167E0,-7.277865601E-1,1.691482544E-1,9.801318054E0,9.829756864E0
8.286659167E0,-7.295828247E-1,1.540296936E-1,9.819280701E0,9.847552474E0
8.296690167E0,-7.250921631E-1,1.713935852E-1,9.825268250E0,9.853478096E0
8.306722167E0,-7.247927856E-1,1.727407837E-1,9.817634125E0,9.845867345E0
8.316753167E0,-7.445516968E-1,1.884580994E-1,9.820328522E0,9.850316033E0
8.326785167E0,-7.481442261E-1,1.725910950E-1,9.805958405E0,9.835971111E0
8.336816167E0,-7.656578064E-1,1.829196167E-1,9.804910583E0,9.836460899E0
8.346848292E0,-7.598199463E-1,1.730401611E-1,9.845326538E0,9.876118868E0
8.356879292E0,-7.424560547E-1,1.704954529E-1,9.897867279E0,9.927138881E0
8.366911292E0,-7.235952759E-1,1.764830017E-1,9.884395294E0,9.912416794E0
8.376942292E0,-7.364685059E-1,1.871109009E-1,9.811945953E0,9.841325101E0
8.386973292E0,-7.584727478E-1,1.971400452E-1,9.770182800E0,9.801561970E0
8.397005292E0,-7.827223206E-1,1.957928467E-1,9.776320038E0,9.809557714E0
8.407036292E0,-7.720944214E-1,1.844165039E-1,9.822573853E0,9.854597725E0
8.417068292E0,-7.396119690E-1,1.848655701E-1,9.815837860E0,9.845398623E0
8.427099292E0,-7.360194397E-1,1.845661926E-1,9.720935211E0,9.750506175E0
8.437131292E0,-7.482939148E-1,1.936972046E-1,9.799970856E0,9.830406460E0
8.447162292E0,-7.297325134E-1,1.869612122E-1,9.915231171E0,9.943805771E0
8.457194292E0,-6.762936401E-1,1.645079041E-1,1.000070343E1,1.002489427E1
8.467225292E0,-6.536906433E-1,1.570234680E-1,9.924212494E0,9.946957397E0
8.477256292E0,-6.912625122E-1,1.568737793E-1,9.824968872E0,9.850505905E0
8.487288292E0,-7.553292847E-1,1.767823792E-1,9.745633850E0,9.776459148E0
8.497319292E0,-7.632627869E-1,1.567240906E-1,9.689799957E0,9.721077910E0
8.507351292E0,-7.418572998E-1,1.454974365E-1,9.642648010E0,9.672237715E0
8.517382292E0,-7.297325134E-1,1.273851013E-1,9.696985016E0,9.725238038E0
8.527414292E0,-6.863227844E-1,1.230441284E-1,9.797725525E0,9.822504990E0
8.537445292E0,-6.339317322E-1,1.315763855E-1,9.879305878E0,9.900498291E0
8.547477292E0,-6.282435608E-1,1.422042847E-1,9.926607513E0,9.947484544E0
8.557508292E0,-6.536906433E-1,1.597178650E-1,9.914333038E0,9.937143495E0
8.567539292E0,-6.950047302E-1,1.767823792E-1,9.865534515E0,9.891564834E0
8.577571292E0,-7.330256653E-1,2.031275940E-1,9.820627899E0,9.850041613E0
8.587602292E0,-7.614665222E-1,2.270777893E-1,9.798024902E0,9.830192652E0
8.597634292E0,-7.536827087E-1,2.317181396E-1,9.825417938E0,9.857006066E0
8.607665292E0,-7.487429810E-1,2.320175171E-1,9.838889923E0,9.870066013E0
8.617697292E0,-7.301815796E-1,2.287243652E-1,9.841284943E0,9.870986237E0
8.627728292E0,-7.273374939E-1,2.180964661E-1,9.865684204E0,9.894862845E0
8.637760292E0,-7.161108398E-1,1.898052979E-1,9.871522064E0,9.899282229E0
8.647791292E0,-7.030879211E-1,1.604663086E-1,9.861343231E0,9.887677805E0
8.657822292E0,-6.845265198E-1,1.562750244E-1,9.859846344E0,9.884815040E0
8.667854292E0,-6.927593994E-1,1.321751404E-1,9.864187317E0,9.889366879E0
8.677885292E0,-6.777905273E-1,1.103205872E-1,9.857002258E0,9.880893894E0
8.687917292E0,-6.664141846E-1,1.116677856E-1,9.835297394E0,9.858481241E0
8.697948292E0,-6.623725891E-1,1.061293030E-1,9.829160156E0,9.852024678E0
8.707980292E0,-6.505471802E-1,1.167572021E-1,9.829160156E0,9.851356925E0
8.718011292E0,-6.478527832E-1,1.227447510E-1,9.841584320E0,9.863648485E0
8.728043292E0,-6.509962463E-1,1.249900818E-1,9.842332764E0,9.864630397E0
8.738074292E0,-6.581813049E-1,1.607656860E-1,9.867779846E0,9.891012452E0
8.748105292E0,-6.735992432E-1,1.857637024E-1,9.903854828E0,9.928473425E0
8.758137292E0,-6.962022400E-1,1.984872437E-1,9.900561676E0,9.926994321E0
8.768168292E0,-7.206015015E-1,2.230361938E-1,9.840985565E0,9.869853523E0
8.778200292E0,-7.458988953E-1,2.472857666E-1,9.804311829E0,9.835753446E0
8.788231292E0,-7.587721252E-1,2.662962341E-1,9.771380310E0,9.804413393E0
8.798263292E0,-7.982899475E-1,2.529739380E-1,9.722132721E0,9.758131342E0
8.808294292E0,-7.878117371E-1,2.426454163E-1,9.755363617E0,9.790129899E0
8.818325292E0,-7.291337585E-1,1.922003174E-1,9.845176849E0,9.874010543E0
8.828357292E0,-6.767427063E-1,1.426533508E-1,9.861343231E0,9.885566296E0
8.838388292E0,-6.831793213E-1,1.399589539E-1,9.862391052E0,9.887015716E0
8.848420292E0,-6.966513062E-1,1.224453735E-1,9.854607239E0,9.879959501E0
8.858451292E0,-7.050338745E-1,1.125659180E-1,9.845326538E0,9.871180198E0
8.868483292E0,-6.914122009E-1,1.022373962E-1,9.859996033E0,9.884736976E0
8.878514292E0,-6.773414612E-1,1.200503540E-1,9.881551208E0,9.905466058E0
8.888546292E0,-6.750961304E-1,1.303788757E-1,9.888436890E0,9.912312422E0
8.898577292E0,-6.719526672E-1,1.440005493E-1,9.907597046E0,9.931401501E0
8.908608292E0,-6.968009949E-1,1.700463867E-1,9.887987823E0,9.913967450E0
8.918640292E0,-6.996450806E-1,2.019300842E-1,9.826465759E0,9.853410999E0
8.928671292E0,-7.086264038E-1,2.011816406E-1,9.792037354E0,9.819705747E0
8.938703292E0,-7.315287781E-1,2.161505127E-1,9.785750427E0,9.815435132E0
8.948734292E0,-7.271878052E-1,2.149530029E-1,9.823022919E0,9.852247772E0
8.958766292E0,-7.226971436E-1,2.207908630E-1,9.838889923E0,9.867866775E0
8.968797292E0,-7.292834473E-1,2.080673218E-1,9.830806732E0,9.860015586E0
8.978829292E0,-7.539820862E-1,1.835183716E-1,9.800120544E0,9.830795017E0
8.988860292E0,-7.517367554E-1,1.748364258E-1,9.802814941E0,9.833150904E0
8.998891292E0,-7.614665222E-1,1.675016785E-1,9.809251556E0,9.840188218E0
9.008923292E0,-7.455995178E-1,1.607656860E-1,9.799671478E0,9.829309504E0
9.018954292E0,-7.375163269E-1,1.499880981E-1,9.834399261E0,9.863155458E0
9.028986292E0,-7.231462097E-1,1.604663086E-1,9.852062531E0,9.879869735E0
9.039017292E0,-7.174580383E-1,1.495390320E-1,9.835746460E0,9.863012541E0
9.049049292E0,-7.068301392E-1,1.643582153E-1,9.829010468E0,9.855763250E0
9.059080292E0,-7.276368713E-1,1.755848694E-1,9.815688171E0,9.844187104E0
9.069112292E0,-7.361691284E-1,1.757345581E-1,9.818382568E0,9.847510542E0
9.079143292E0,-7.551795959E-1,1.760339355E-1,9.810748444E0,9.841344887E0
9.089174292E0,-7.376660156E-1,1.959425354E-1,9.811796265E0,9.841437424E0
9.099206292E0,-7.322772217E-1,1.812730408E-1,9.810299377E0,9.839261340E0
9.109237292E0,-7.333250427E-1,1.719923401E-1,9.808353424E0,9.837232531E0
9.119269292E0,-7.159611511E-1,1.908531189E-1,9.826765137E0,9.854660742E0
9.129300292E0,-7.000941467E-1,1.746867371E-1,9.837842102E0,9.864268067E0
9.139332292E0,-6.971003723E-1,1.667532349E-1,9.843979340E0,9.870039757E0
9.149363292E0,-6.926097107E-1,1.600172424E-1,9.862391052E0,9.887976082E0
9.159395292E0,-6.836283875E-1,1.704954529E-1,9.837093658E0,9.862293248E0
9.169426292E0,-6.884184265E-1,1.746867371E-1,9.826914825E0,9.852547405E0
9.179457292E0,-6.893165588E-1,1.685494995E-1,9.827214203E0,9.852801898E0
9.189489292E0,-6.882687378E-1,1.658551025E-1,9.807904358E0,9.833423090E0
9.199520292E0,-7.009922791E-1,1.549278259E-1,9.813293152E0,9.839518042E0
9.209552292E0,-7.078779602E-1,1.722917175E-1,9.823172607E0,9.850152066E0
9.219583292E0,-7.228468323E-1,1.633103943E-1,9.810748444E0,9.838697213E0
9.229615292E0,-7.135661316E-1,1.601669312E-1,9.801467743E0,9.828713038E0
9.239646292E0,-7.167095947E-1,1.784289551E-1,9.862690430E0,9.890306974E0
9.249678292E0,-7.170089722E-1,1.722917175E-1,9.889484711E0,9.916939757E0
9.259709292E0,-7.131170654E-1,1.688488770E-1,9.876312103E0,9.903463367E0
9.269740292E0,-7.237449646E-1,1.987866211E-1,9.804012451E0,9.832699682E0
9.279772292E0,-7.438032532E-1,2.062710571E-1,9.782008209E0,9.812414363E0
9.289803292E0,-7.601193237E-1,2.125579834E-1,9.805359650E0,9.837074776E0
9.299835292E0,-7.482939148E-1,1.945953369E-1,9.827214203E0,9.857583381E0
9.309866292E0,-7.387138367E-1,1.920506287E-1,9.781409454E0,9.811144301E0
9.319898292E0,-7.369175720E-1,2.113604736E-1,9.727820892E0,9.757982377E0
9.329929292E0,-7.432044983E-1,2.038760376E-1,9.754615173E0,9.785010759E0
9.339961292E0,-7.276368713E-1,1.718426514E-1,9.898765411E0,9.926960360E0
9.349991917E0,-6.691085815E-1,1.649569702E-1,9.989027710E0,1.001277143E1
9.360022917E0,-6.417155457E-1,1.422042847E-1,9.886940002E0,9.908763975E0
9.370054917E0,-6.741979980E-1,1.448986816E-1,9.832004242E0,9.856157770E0
9.380085917E0,-7.256909180E-1,1.335223389E-1,9.805958405E0,9.833680682E0
9.390117917E0,-7.397616577E-1,1.425036621E-1,9.717043304E0,9.746203629E0
9.400148917E0,-7.292834473E-1,1.375639343E-1,9.622589722E0,9.651166310E0
9.410180917E0,-7.303312683E-1,1.345701599E-1,9.659113770E0,9.687619506E0
9.420211917E0,-6.947053528E-1,1.631607056E-1,9.750274200E0,9.776353304E0
9.430243917E0,-6.448590088E-1,1.613644409E-1,9.829908600E0,9.852359347E0
9.440274917E0,-6.249504089E-1,1.922003174E-1,9.894574127E0,9.916153545E0
9.450305917E0,-6.286926270E-1,2.106120300E-1,9.895621948E0,9.917809516E0
9.460337917E0,-6.539900208E-1,2.378553772E-1,9.874366150E0,9.898857762E0
9.470368917E0,-6.858737183E-1,2.465373230E-1,9.836943970E0,9.863907444E0
9.480400917E0,-7.220983887E-1,2.338137817E-1,9.833650818E0,9.862899339E0
9.490431917E0,-7.364685059E-1,2.272274780E-1,9.842033386E0,9.872164877E0
9.500463917E0,-7.316784668E-1,2.275268555E-1,9.846973114E0,9.876740422E0
9.510494917E0,-7.270381165E-1,2.103126526E-1,9.864486694E0,9.893478336E0
9.520526917E0,-6.932084656E-1,1.788780212E-1,9.862690430E0,9.888639837E0
9.530557917E0,-6.962022400E-1,1.698966980E-1,9.846823425E0,9.872866555E0
9.540588917E0,-6.761439514E-1,1.570234680E-1,9.842332764E0,9.866779679E0
9.550620917E0,-6.682104492E-1,1.526824951E-1,9.830806732E0,9.854672910E0
9.560651917E0,-6.658154297E-1,1.411564636E-1,9.837991791E0,9.861506873E0
9.570683917E0,-6.418652344E-1,1.314266968E-1,9.835596771E0,9.857394575E0
9.580714917E0,-6.569837952E-1,1.267863464E-1,9.842033386E0,9.864751576E0
9.590746917E0,-6.388714600E-1,1.444496155E-1,9.835746460E0,9.857531682E0
9.600777917E0,-6.447093201E-1,1.296304321E-1,9.839788055E0,9.861738342E0
9.610809917E0,-6.295907593E-1,1.359173584E-1,9.828711090E0,9.849792878E0
9.620840917E0,-6.493496704E-1,1.609153748E-1,9.842931519E0,9.865639849E0
9.630871917E0,-6.590794373E-1,1.613644409E-1,9.878108368E0,9.901386222E0
9.640903917E0,-6.616241455E-1,1.683998108E-1,9.896520081E0,9.920041064E0
9.650934917E0,-6.779402161E-1,1.910028076E-1,9.863139496E0,9.888255950E0
9.660966917E0,-7.021897888E-1,2.124082947E-1,9.860445099E0,9.887697676E0
9.670997917E0,-7.164102173E-1,2.460882568E-1,9.803713074E0,9.832934102E0
9.681029917E0,-7.369175720E-1,2.592608643E-1,9.785750427E0,9.816882149E0
9.691060917E0,-7.396119690E-1,2.383044434E-1,9.760602722E0,9.791485095E0
9.701091917E0,-7.201524353E-1,2.200424194E-1,9.743089142E0,9.772145323E0
9.711123917E0,-7.002438354E-1,2.180964661E-1,9.811646576E0,9.839020075E0
9.721154917E0,-6.761439514E-1,2.035766602E-1,9.874964905E0,9.900179088E0
9.731186917E0,-6.575825500E-1,1.802252197E-1,9.905950470E0,9.929388232E0
9.741217917E0,-6.529421997E-1,1.595681763E-1,9.913434906E0,9.936195809E0
9.751249917E0,-6.578819275E-1,1.657054138E-1,9.925859070E0,9.949017298E0
9.761280917E0,-6.673123169E-1,1.743873596E-1,9.907297668E0,9.931277046E0
9.771312917E0,-6.521937561E-1,1.839674377E-1,9.888436890E0,9.911628768E0
9.781343917E0,-6.523434448E-1,2.101629639E-1,9.839338989E0,9.863179619E0
9.791375917E0,-6.602769470E-1,2.278262329E-1,9.772877197E0,9.797805834E0
9.801406917E0,-6.833290100E-1,2.433938599E-1,9.742490387E0,9.769457408E0
9.811437917E0,-6.965016174E-1,2.392025757E-1,9.754465485E0,9.782225169E0
9.821469917E0,-6.915618896E-1,2.380050659E-1,9.802515564E0,9.829761729E0
9.831500917E0,-6.701564026E-1,2.321672058E-1,9.803114319E0,9.828736519E0
9.841532917E0,-6.942562866E-1,2.450404358E-1,9.798324280E0,9.825945008E0
9.851563917E0,-7.099736023E-1,2.218386841E-1,9.801916809E0,9.830099086E0
9.861595917E0,-7.116201782E-1,2.136058044E-1,9.794432373E0,9.822572791E0
9.871626917E0,-7.324269104E-1,2.023791504E-1,9.786049805E0,9.815506980E0
9.881657917E0,-7.415579224E-1,1.992356873E-1,9.776320038E0,9.806428325E0
9.891689917E0,-7.408094788E-1,2.092648315E-1,9.776619415E0,9.806879098E0
9.901720917E0,-7.277865601E-1,2.067201233E-1,9.776619415E0,9.805849972E0
9.911752917E0,-7.168592834E-1,2.165995789E-1,9.779463501E0,9.808094054E0
9.921783917E0,-7.000941467E-1,2.221380615E-1,9.809700623E0,9.837159317E0
9.931815917E0,-6.854246521E-1,2.243833923E-1,9.804012451E0,9.830504311E0
9.941846917E0,-6.894662476E-1,2.347119141E-1,9.800868988E0,9.827893279E0
9.951878917E0,-7.140151978E-1,2.486329651E-1,9.798473969E0,9.827600326E0
9.961909917E0,-7.086264038E-1,2.513273621E-1,9.793983307E0,9.822801323E0
9.971941917E0,-7.117698669E-1,2.519261169E-1,9.791588287E0,9.820656002E0
9.981972917E0,-7.104226685E-1,2.492317200E-1,9.813143463E0,9.841981581E0
9.992003917E0,-7.204518127E-1,2.329156494E-1,9.803862762E0,9.833057794E0
1.000203592E1,-7.198530579E-1,2.471360779E-1,9.804311829E0,9.833808779E0
1.001206692E1,-7.274871826E-1,2.362088013E-1,9.811047821E0,9.840817626E0
1.002209892E1,-7.125183105E-1,2.348616028E-1,9.798923035E0,9.827600671E0
1.003212992E1,-6.968009949E-1,2.423460388E-1,9.798473969E0,9.826207577E0
1.004216192E1,-6.902146912E-1,2.380050659E-1,9.821226654E0,9.848326544E0
1.005219292E1,-6.938072205E-1,2.297721863E-1,9.803713074E0,9.830918256E0
1.006222492E1,-6.924600220E-1,2.258802795E-1,9.809251556E0,9.836256345E0
1.007225592E1,-6.815327454E-1,2.209405518E-1,9.826166382E0,9.852250879E0
1.008228692E1,-6.879693604E-1,2.167492676E-1,9.810449066E0,9.836930058E0
1.009231892E1,-6.882687378E-1,2.122586060E-1,9.823771362E0,9.850139661E0
1.010234992E1,-7.044351196E-1,2.149530029E-1,9.811347198E0,9.838951544E0
1.011238192E1,-7.102729797E-1,2.270777893E-1,9.805808716E0,9.834121038E0
1.012241292E1,-7.210505676E-1,2.221380615E-1,9.806108093E0,9.835091010E0
1.013244492E1,-7.229965210E-1,2.293231201E-1,9.813742218E0,9.843010179E0
1.014247592E1,-7.173083496E-1,2.245330811E-1,9.792187042E0,9.820991469E0
1.015250792E1,-7.441026306E-1,2.495310974E-1,9.801617432E0,9.832988293E0
1.016253892E1,-7.458988953E-1,2.501298523E-1,9.844278717E0,9.875664715E0
1.017256992E1,-7.283853149E-1,2.326162720E-1,9.889634399E0,9.919149361E0
1.018260192E1,-7.336244202E-1,2.493814087E-1,9.868528290E0,9.898901277E0
1.019263292E1,-7.550299072E-1,2.562670898E-1,9.812395020E0,9.844736614E0
1.020266492E1,-7.658074951E-1,2.667453003E-1,9.772278442E0,9.805867638E0
1.021269592E1,-7.722441101E-1,2.628533936E-1,9.787097626E0,9.821035221E0
1.022272792E1,-7.632627869E-1,2.613565063E-1,9.837692413E0,9.870717771E0
1.023275892E1,-7.409591675E-1,2.442919922E-1,9.804311829E0,9.835305257E0
1.024279092E1,-7.340734863E-1,2.294728088E-1,9.678722992E0,9.709232740E0
1.025282192E1,-7.571255493E-1,2.408491516E-1,9.678273926E0,9.710830737E0
1.026285292E1,-7.725434875E-1,2.245330811E-1,9.895771637E0,9.928420561E0
1.027288492E1,-6.707551575E-1,2.070195007E-1,1.001806732E1,1.004263125E1
1.028291592E1,-6.236032104E-1,1.678010559E-1,9.902807007E0,9.923841231E0
1.029294792E1,-6.499484253E-1,1.745370483E-1,9.868677979E0,9.891597504E0
1.030297892E1,-7.259902954E-1,1.737886047E-1,9.844428406E0,9.872691377E0
1.031301092E1,-7.502398682E-1,1.772314453E-1,9.710457001E0,9.741008470E0
1.032304192E1,-7.646099854E-1,1.844165039E-1,9.621541901E0,9.653636953E0
1.033307392E1,-7.595205688E-1,1.860630798E-1,9.641151123E0,9.672811687E0
1.034310492E1,-7.195536804E-1,1.784289551E-1,9.759405212E0,9.787521877E0
1.035313654E1,-6.783892822E-1,2.067201233E-1,9.833351440E0,9.858891711E0
1.036316854E1,-6.520440674E-1,2.353106689E-1,9.883048096E0,9.907329218E0
1.037319954E1,-6.548881531E-1,2.715353394E-1,9.887688446E0,9.913071811E0
1.038323154E1,-6.902146912E-1,2.845582581E-1,9.874366150E0,9.902548994E0
1.039326254E1,-7.307803345E-1,2.986289978E-1,9.862840118E0,9.894383982E0
1.040329454E1,-7.635621643E-1,2.911445618E-1,9.841284943E0,9.875154766E0
1.041332554E1,-7.611671448E-1,2.841091919E-1,9.847571869E0,9.881030572E0
1.042335754E1,-7.559280396E-1,2.528242493E-1,9.867779846E0,9.899920525E0
1.043338854E1,-7.488926697E-1,2.302212524E-1,9.886640625E0,9.917636054E0
1.044341954E1,-7.303312683E-1,2.124082947E-1,9.889035645E0,9.918242134E0
1.045345154E1,-7.125183105E-1,1.908531189E-1,9.857451324E0,9.885011577E0
1.046348254E1,-7.095245361E-1,1.725910950E-1,9.812694397E0,9.839826425E0
1.047351454E1,-7.077282715E-1,1.613644409E-1,9.821226654E0,9.848015576E0
1.048354554E1,-6.932084656E-1,1.607656860E-1,9.798324280E0,9.824130612E0
1.049357754E1,-6.836283875E-1,1.651066589E-1,9.825118561E0,9.850256987E0
1.050360854E1,-6.744973755E-1,1.535806274E-1,9.841284943E0,9.865567548E0
1.051364054E1,-6.644682312E-1,1.477427673E-1,9.836943970E0,9.860467160E0
1.052367154E1,-6.692582703E-1,1.594184875E-1,9.855056305E0,9.879041232E0
1.053370254E1,-6.762936401E-1,1.511856079E-1,9.850266266E0,9.874612685E0
1.054373454E1,-6.872209167E-1,1.763333130E-1,9.854307861E0,9.879815254E0
1.055376554E1,-6.897656250E-1,1.917512512E-1,9.876012726E0,9.901927717E0
1.056379754E1,-7.077282715E-1,1.999841309E-1,9.866582336E0,9.893953707E0
1.057382854E1,-7.285350037E-1,2.333647156E-1,9.831405487E0,9.861123475E0
1.058386054E1,-7.613168335E-1,2.594105530E-1,9.842632141E0,9.875439465E0
1.059389154E1,-7.484436035E-1,2.757266235E-1,9.801467743E0,9.833868156E0
1.060392354E1,-7.586224365E-1,2.974314880E-1,9.805359650E0,9.839159077E0
1.061395454E1,-7.779322815E-1,2.781216431E-1,9.774374084E0,9.809226220E0
1.062398554E1,-7.355703735E-1,2.492317200E-1,9.750274200E0,9.781156742E0
1.063401754E1,-7.349716187E-1,2.448907471E-1,9.792187042E0,9.822783813E0
1.064404854E1,-7.192543030E-1,2.163002014E-1,9.816436615E0,9.845127747E0
1.065408054E1,-6.905140686E-1,2.017803955E-1,9.837692413E0,9.863960514E0
1.066411154E1,-6.918612671E-1,1.713935852E-1,9.895322571E0,9.920960465E0
1.067414354E1,-7.048841858E-1,1.667532349E-1,9.929601288E0,9.955985641E0
1.068417454E1,-6.894662476E-1,1.597178650E-1,9.922565918E0,9.947773012E0
1.069420654E1,-6.982978821E-1,1.770817566E-1,9.874815216E0,9.901058198E0
1.070423754E1,-7.149133301E-1,1.920506287E-1,9.822124786E0,9.849980702E0
1.071426954E1,-7.312294006E-1,2.183958435E-1,9.775571594E0,9.805314537E0
1.072430054E1,-7.409591675E-1,2.174977112E-1,9.770631866E0,9.801100592E0
1.073433154E1,-7.200027466E-1,2.354603577E-1,9.790690155E0,9.819952100E0
1.074436354E1,-7.117698669E-1,2.487826538E-1,9.823172607E0,9.852067257E0
1.075439454E1,-6.944059753E-1,2.269281006E-1,9.820178833E0,9.847314778E0
1.076442654E1,-7.026388550E-1,2.299218750E-1,9.826914825E0,9.854685201E0
1.077445754E1,-7.295828247E-1,2.368075562E-1,9.821825409E0,9.851731994E0
1.078448954E1,-7.517367554E-1,2.327659607E-1,9.775721283E0,9.807344939E0
1.079452054E1,-7.707472229E-1,2.240840149E-1,9.755812683E0,9.788776534E0
1.080455254E1,-7.794291687E-1,2.130070496E-1,9.749525757E0,9.782951207E0
1.081458354E1,-7.851173401E-1,2.076182556E-1,9.776320038E0,9.809992256E0
1.082461454E1,-7.518864441E-1,2.052232361E-1,9.808952179E0,9.839867512E0
1.083464654E1,-7.331753540E-1,2.212399292E-1,9.833950195E0,9.863724938E0
1.084467754E1,-7.295828247E-1,2.180964661E-1,9.830956421E0,9.860403710E0
1.085470954E1,-7.521858215E-1,2.204914856E-1,9.825567627E0,9.856783410E0
1.086474054E1,-7.562274170E-1,2.320175171E-1,9.807455292E0,9.839303397E0
1.087477254E1,-7.688012695E-1,2.351609802E-1,9.785900116E0,9.818869444E0
1.088480354E1,-7.668553162E-1,2.240840149E-1,9.780810699E0,9.813385688E0
1.089483554E1,-7.783813477E-1,2.173480225E-1,9.794432373E0,9.827717090E0
1.090486654E1,-7.679031372E-1,2.154020691E-1,9.810898132E0,9.843261423E0
1.091489754E1,-7.641609192E-1,2.077679443E-1,9.821376343E0,9.853250362E0
1.092492954E1,-7.517367554E-1,2.152523804E-1,9.832004242E0,9.863049688E0
1.093496054E1,-7.559280396E-1,1.990859985E-1,9.852960663E0,9.883921097E0
1.094499254E1,-7.279362488E-1,2.112107849E-1,9.861941986E0,9.891026282E0
1.095502354E1,-7.298822021E-1,2.124082947E-1,9.838141479E0,9.867465383E0
1.096505554E1,-7.271878052E-1,2.013313293E-1,9.821675720E0,9.850616750E0
1.097508654E1,-7.210505676E-1,2.083666992E-1,9.828262024E0,9.856879071E0
1.098511854E1,-7.306306458E-1,2.056723022E-1,9.838889923E0,9.868124298E0
1.099514954E1,-7.116201782E-1,1.992356873E-1,9.844578094E0,9.872275117E0
1.100518054E1,-7.131170654E-1,2.073188782E-1,9.836195526E0,9.864190767E0
1.101521254E1,-7.321275330E-1,2.288740540E-1,9.811496887E0,9.841436136E0
1.102524354E1,-7.331753540E-1,2.134561157E-1,9.832303619E0,9.861911786E0
1.103527554E1,-7.578739929E-1,2.127076721E-1,9.870923309E0,9.902259566E0
1.104530654E1,-7.448510742E-1,2.022294617E-1,9.884544983E0,9.914632086E0
1.105533854E1,-7.397616577E-1,2.104623413E-1,9.847122803E0,9.877113404E0
1.106536954E1,-7.500901794E-1,2.278262329E-1,9.791438599E0,9.822769971E0
1.107540154E1,-7.828720093E-1,2.270777893E-1,9.750872955E0,9.784885094E0
1.108543254E1,-8.033793640E-1,2.281256104E-1,9.779762878E0,9.815356420E0
1.109546354E1,-7.806266785E-1,2.161505127E-1,9.832752686E0,9.866059215E0
1.110549554E1,-7.652087402E-1,1.953437805E-1,9.769733734E0,9.801601953E0
1.111552654E1,-7.713459778E-1,2.074685669E-1,9.691895599E0,9.724754914E0
1.112555854E1,-7.836204529E-1,2.089654541E-1,9.756561127E0,9.790210038E0
1.113558954E1,-7.617658997E-1,1.933978271E-1,9.967322845E0,9.998260584E0
1.114562154E1,-6.755451965E-1,1.704954529E-1,1.005938141E1,1.008348076E1
1.115565254E1,-6.596781921E-1,1.613644409E-1,9.899214478E0,9.922482606E0
1.116568454E1,-7.276368713E-1,1.800755310E-1,9.804910583E0,9.833521961E0
1.117571554E1,-8.008346558E-1,1.947450256E-1,9.737550659E0,9.772366889E0
1.118574754E1,-8.137078857E-1,1.892065430E-1,9.689650269E0,9.725597255E0
1.119577854E1,-7.911048889E-1,1.761836243E-1,9.646390228E0,9.680378714E0
1.120580954E1,-7.590715027E-1,1.722917175E-1,9.680968323E0,9.712209926E0
1.121584154E1,-7.229965210E-1,1.739382935E-1,9.777367859E0,9.805605578E0
1.122587254E1,-6.786886597E-1,1.769320679E-1,9.876312103E0,9.901184980E0
1.123590454E1,-6.557862854E-1,1.954934692E-1,9.936187592E0,9.959723751E0
1.124593554E1,-6.671626282E-1,2.028282166E-1,9.904752960E0,9.929268677E0
1.125596754E1,-7.056326294E-1,2.168989563E-1,9.863438873E0,9.891025678E0
1.126599854E1,-7.429051208E-1,2.251318359E-1,9.826765137E0,9.857378222E0
1.127603054E1,-7.637118530E-1,2.215393066E-1,9.797575836E0,9.829792863E0
1.128606154E1,-7.521858215E-1,2.576142883E-1,9.802216187E0,9.834408513E0
1.129609254E1,-7.592211914E-1,2.595602417E-1,9.824370117E0,9.857080528E0
1.130612454E1,-7.390132141E-1,2.444416809E-1,9.839638367E0,9.870378688E0
1.131615554E1,-7.340734863E-1,2.339634705E-1,9.855655060E0,9.885724022E0
1.132618754E1,-7.068301392E-1,2.022294617E-1,9.864935760E0,9.892293119E0
1.133621854E1,-6.991960144E-1,2.005828857E-1,9.867031403E0,9.893807016E0
1.134625004E1,-6.902146912E-1,1.776805115E-1,9.858948212E0,9.884676349E0
1.135628104E1,-6.976991272E-1,1.607656860E-1,9.840237122E0,9.866250366E0
1.136631304E1,-7.014413452E-1,1.561253357E-1,9.834848328E0,9.861066713E0
1.137634404E1,-7.096742249E-1,1.478924561E-1,9.828860779E0,9.855557513E0
1.138637504E1,-7.081773376E-1,1.395098877E-1,9.822873230E0,9.849356154E0
1.139640704E1,-7.027885437E-1,1.432521057E-1,9.797575836E0,9.823793828E0
1.140643804E1,-6.902146912E-1,1.529818726E-1,9.844129028E0,9.869482058E0
1.141647004E1,-6.979985046E-1,1.695973206E-1,9.847721558E0,9.873883990E0
1.142650104E1,-6.906637573E-1,1.860630798E-1,9.870474243E0,9.896357799E0
1.143653304E1,-6.965016174E-1,1.995350647E-1,9.910740509E0,9.937188042E0
1.144656404E1,-6.971003723E-1,2.231858826E-1,9.900711365E0,9.927731181E0
1.145659604E1,-7.238946533E-1,2.281256104E-1,9.835746460E0,9.864987237E0
1.146662704E1,-7.602690125E-1,2.480342102E-1,9.828262024E0,9.860743600E0
1.147665804E1,-7.702981567E-1,2.650987244E-1,9.764494629E0,9.798417829E0
1.148669004E1,-8.044271851E-1,2.661465454E-1,9.701176300E0,9.738108578E0
1.149672104E1,-8.047265625E-1,2.519261169E-1,9.731263733E0,9.767729800E0
1.150675304E1,-7.572752380E-1,2.290237427E-1,9.810598755E0,9.842447134E0
1.151678404E1,-6.887178040E-1,2.088157654E-1,9.835896149E0,9.862189883E0
1.152681604E1,-6.905140686E-1,1.995350647E-1,9.824968872E0,9.851225165E0
1.153684704E1,-7.179071045E-1,1.857637024E-1,9.830806732E0,9.858735201E0
1.154687904E1,-7.177574158E-1,1.655557251E-1,9.841135254E0,9.868663916E0
1.155691004E1,-7.180567932E-1,1.597178650E-1,9.886640625E0,9.913968842E0
1.156694204E1,-7.068301392E-1,1.531315613E-1,9.888736267E0,9.915148162E0
1.157697304E1,-7.090754700E-1,1.649569702E-1,9.880503387E0,9.907287520E0
1.158700404E1,-7.072792053E-1,1.730401611E-1,9.885143738E0,9.911924812E0
1.159703604E1,-7.247927856E-1,1.930984497E-1,9.862391052E0,9.890873008E0
1.160706704E1,-7.222480774E-1,2.002835083E-1,9.823621674E0,9.852172276E0
1.161709904E1,-7.375163269E-1,2.317181396E-1,9.807006226E0,9.837428258E0
1.162713004E1,-7.373666382E-1,2.279759216E-1,9.805359650E0,9.835688102E0
1.163716204E1,-7.203021240E-1,2.285746765E-1,9.816735992E0,9.845780166E0
1.164719304E1,-7.241940308E-1,2.279759216E-1,9.815688171E0,9.845007074E0
1.165722504E1,-7.328759766E-1,2.282752991E-1,9.818382568E0,9.848342656E0
1.166725604E1,-7.436535645E-1,2.296224976E-1,9.780511322E0,9.811429500E0
1.167728704E1,-7.711962891E-1,2.127076721E-1,9.762848053E0,9.795569936E0
1.168731904E1,-7.831713867E-1,1.962419128E-1,9.785451050E0,9.818702590E0
1.169735004E1,-7.640112305E-1,1.815724182E-1,9.803563385E0,9.834965010E0
1.170738204E1,-7.590715027E-1,1.892065430E-1,9.812694397E0,9.843828523E0
1.171741304E1,-7.444020081E-1,1.893562317E-1,9.836195526E0,9.866140713E0
1.172744504E1,-7.316784668E-1,1.968406677E-1,9.857451324E0,9.886528523E0
1.173747604E1,-7.453001404E-1,1.974394226E-1,9.856253815E0,9.886364038E0
1.174750804E1,-7.548802185E-1,1.953437805E-1,9.823771362E0,9.854668290E0
1.175753904E1,-7.598199463E-1,1.860630798E-1,9.818532257E0,9.849645755E0
1.176757104E1,-7.774832153E-1,2.061213684E-1,9.811496887E0,9.844411477E0
1.177760204E1,-7.677534485E-1,1.965412903E-1,9.800719299E0,9.832709322E0
1.178763304E1,-7.650590515E-1,2.020797729E-1,9.809251556E0,9.841116181E0
1.179766504E1,-7.497908020E-1,1.987866211E-1,9.819280701E0,9.849871870E0
1.180769604E1,-7.361691284E-1,1.999841309E-1,9.838740234E0,9.868269759E0
1.181772804E1,-7.176077271E-1,1.987866211E-1,9.845775604E0,9.873893569E0
1.182775904E1,-7.098239136E-1,2.047741699E-1,9.849667511E0,9.877334282E0
1.183779104E1,-7.056326294E-1,1.939965820E-1,9.840237122E0,9.867411955E0
1.184782204E1,-7.295828247E-1,1.887574768E-1,9.851613464E0,9.880395151E0
1.185785404E1,-7.114704895E-1,1.957928467E-1,9.844428406E0,9.872046178E0
1.186788504E1,-7.155120850E-1,1.969903564E-1,9.832153931E0,9.860122396E0
1.187791604E1,-7.280859375E-1,1.968406677E-1,9.799372101E0,9.828354336E0
1.188794804E1,-7.364685059E-1,1.986369324E-1,9.795929260E0,9.825582556E0
1.189797904E1,-7.497908020E-1,1.945953369E-1,9.830657043E0,9.861129322E0
1.190801104E1,-7.283853149E-1,1.814227295E-1,9.876012726E0,9.904498308E0
1.191804204E1,-7.258406067E-1,2.008822632E-1,9.857301636E0,9.886030235E0
1.192807404E1,-7.161108398E-1,2.086660767E-1,9.817783813E0,9.846077152E0
1.193810504E1,-7.548802185E-1,2.041754150E-1,9.777367859E0,9.808590826E0
1.194813704E1,-7.779322815E-1,2.215393066E-1,9.767638092E0,9.801071992E0
1.195816804E1,-7.776329041E-1,2.026785278E-1,9.798623657E0,9.831521606E0
1.196819904E1,-7.640112305E-1,2.023791504E-1,9.833501129E0,9.865212362E0
1.197823104E1,-7.500901794E-1,1.865121460E-1,9.749825134E0,9.780414726E0
1.198826204E1,-7.707472229E-1,2.053729248E-1,9.734706573E0,9.767330310E0
1.199829404E1,-7.619155884E-1,2.070195007E-1,9.827064514E0,9.858730618E0
1.200832504E1,-7.256909180E-1,1.730401611E-1,9.999954987E0,1.002774501E1
1.201835704E1,-6.512956238E-1,1.517843628E-1,1.000459534E1,1.002692138E1
1.202838804E1,-6.611750793E-1,1.730401611E-1,9.880653076E0,9.904261739E0
1.203842004E1,-7.363188171E-1,1.761836243E-1,9.770931244E0,9.800219561E0
1.204845104E1,-8.050259399E-1,1.853146362E-1,9.716594238E0,9.751646624E0
1.205848304E1,-7.884104919E-1,1.826202393E-1,9.669891357E0,9.703697240E0
1.206851404E1,-7.484436035E-1,1.695973206E-1,9.675729218E0,9.706114927E0
1.207854504E1,-7.071295166E-1,1.522334290E-1,9.747729492E0,9.774530036E0
1.208857704E1,-6.659651184E-1,1.480421448E-1,9.831704865E0,9.855346090E0
1.209860804E1,-6.415658569E-1,1.664538574E-1,9.913135529E0,9.935268977E0
1.210864004E1,-6.468049622E-1,1.704954529E-1,9.942474518E0,9.964949819E0
1.211867104E1,-6.762936401E-1,1.830693054E-1,9.907896423E0,9.932638068E0
1.212870304E1,-7.288343811E-1,1.999841309E-1,9.838141479E0,9.867128305E0
1.213873404E1,-7.622149658E-1,2.100132751E-1,9.803563385E0,9.835391821E0
1.214876604E1,-7.771838379E-1,2.415975952E-1,9.797725525E0,9.831470367E0
1.215879704E1,-7.682025146E-1,2.429447937E-1,9.811796265E0,9.844821137E0
1.216882804E1,-7.424560547E-1,2.395019531E-1,9.840237122E0,9.871112844E0
1.217886004E1,-7.385641479E-1,2.344125366E-1,9.864935760E0,9.895321308E0
1.218889104E1,-7.092251587E-1,2.179467773E-1,9.880054321E0,9.907874369E0
1.219892304E1,-6.997947693E-1,1.996847534E-1,9.882898407E0,9.909655274E0
1.220895404E1,-7.051835632E-1,1.773811340E-1,9.872569885E0,9.899312303E0
1.221898604E1,-7.009922791E-1,1.377136230E-1,9.855205994E0,9.881064740E0
1.222901704E1,-6.918612671E-1,1.267863464E-1,9.849218445E0,9.874302546E0
1.223904904E1,-6.936575317E-1,1.164578247E-1,9.828112335E0,9.853248970E0
1.224908004E1,-6.935078430E-1,1.146615601E-1,9.826765137E0,9.851873601E0
1.225911204E1,-6.909631348E-1,1.155596924E-1,9.825867004E0,9.850809433E0
1.226914304E1,-6.809339905E-1,1.207987976E-1,9.815837860E0,9.840169528E0
1.227917404E1,-6.759942627E-1,1.263372803E-1,9.839189301E0,9.863192964E0
1.228920604E1,-6.767427063E-1,1.486408997E-1,9.856253815E0,9.880577618E0
1.229923704E1,-6.779402161E-1,1.718426514E-1,9.883048096E0,9.907763244E0
1.230926904E1,-7.050338745E-1,1.989363098E-1,9.921817474E0,9.948824575E0
1.231930004E1,-6.978488159E-1,2.179467773E-1,9.894574127E0,9.921546801E0
1.232933204E1,-7.355703735E-1,2.284249878E-1,9.840985565E0,9.871080926E0
1.233936304E1,-7.668553162E-1,2.586621094E-1,9.823022919E0,9.856305212E0
1.234940521E1,-7.846682739E-1,2.646496582E-1,9.742490387E0,9.777620502E0
1.235943621E1,-7.878117371E-1,2.628533936E-1,9.737700348E0,9.773052098E0
1.236946721E1,-7.815248108E-1,2.418969727E-1,9.771080933E0,9.805269898E0
1.237949921E1,-7.234455872E-1,2.053729248E-1,9.810299377E0,9.839081534E0
1.238953021E1,-6.926097107E-1,1.829196167E-1,9.835147705E0,9.861201660E0
1.239956221E1,-7.015910339E-1,1.733395386E-1,9.811796265E0,9.838374994E0
1.240959321E1,-7.216493225E-1,1.670526123E-1,9.811945953E0,9.839866245E0
1.241962521E1,-7.188052368E-1,1.486408997E-1,9.821226654E0,9.848617572E0
1.242965621E1,-7.051835632E-1,1.389111328E-1,9.842632141E0,9.868839224E0
1.243968821E1,-6.870712280E-1,1.475930786E-1,9.868079224E0,9.893070209E0
1.244971921E1,-6.979985046E-1,1.529818726E-1,9.904004517E0,9.929748780E0
1.245975121E1,-7.090754700E-1,1.597178650E-1,9.926308136E0,9.952883553E0
1.246978221E1,-7.050338745E-1,1.767823792E-1,9.908195801E0,9.934821025E0
1.247981321E1,-7.126679993E-1,1.856140137E-1,9.841584320E0,9.869099765E0
1.248984521E1,-7.188052368E-1,2.062710571E-1,9.790540466E0,9.819058577E0
1.249987621E1,-7.396119690E-1,2.236349487E-1,9.779613190E0,9.810090346E0
1.250990821E1,-7.424560547E-1,2.233355713E-1,9.791887665E0,9.822534490E0
1.251993921E1,-7.372169495E-1,2.183958435E-1,9.806856537E0,9.836951800E0
1.252997121E1,-7.412585449E-1,2.260299683E-1,9.809251556E0,9.839815541E0
1.254000221E1,-7.470964050E-1,2.136058044E-1,9.799372101E0,9.830130927E0
1.255003421E1,-7.574249268E-1,2.031275940E-1,9.808802490E0,9.840099574E0
1.256006521E1,-7.527845764E-1,1.923500061E-1,9.799521790E0,9.830275197E0
1.257009721E1,-7.479945374E-1,1.902543640E-1,9.778265991E0,9.808678726E0
1.258012821E1,-7.502398682E-1,1.844165039E-1,9.790091400E0,9.820527426E0
1.259015921E1,-7.441026306E-1,1.842668152E-1,9.808054047E0,9.837965601E0
1.260019121E1,-7.357200623E-1,1.820214844E-1,9.821975098E0,9.851173060E0
1.261022221E1,-7.466473389E-1,1.893562317E-1,9.832602997E0,9.862728817E0
1.262025421E1,-7.424560547E-1,1.869612122E-1,9.842183075E0,9.871917907E0
1.263028521E1,-7.500901794E-1,1.966909790E-1,9.837393036E0,9.867908814E0
1.264031721E1,-7.711962891E-1,1.938468933E-1,9.808802490E0,9.840981995E0
1.265034821E1,-7.662565613E-1,1.956431580E-1,9.804461517E0,9.836304744E0
1.266038021E1,-7.722441101E-1,1.887574768E-1,9.811197510E0,9.843352423E0
1.267041121E1,-7.708969116E-1,1.866618347E-1,9.833501129E0,9.865438112E0
1.268044221E1,-7.421566772E-1,1.701960754E-1,9.839488678E0,9.868905749E0
1.269047421E1,-7.267387390E-1,1.895059204E-1,9.842033386E0,9.870647540E0
1.270050521E1,-7.283853149E-1,1.766326904E-1,9.833800507E0,9.862321059E0
1.271053721E1,-7.180567932E-1,1.969903564E-1,9.837542725E0,9.865680798E0
1.272056821E1,-7.147636414E-1,1.972897339E-1,9.824669495E0,9.852610871E0
1.273060021E1,-7.059320068E-1,1.893562317E-1,9.815837860E0,9.843011159E0
1.274063121E1,-7.078779602E-1,1.962419128E-1,9.813592529E0,9.841046714E0
1.275066321E1,-7.086264038E-1,1.865121460E-1,9.820478210E0,9.847777944E0
1.276069421E1,-7.249424744E-1,1.847158813E-1,9.799671478E0,9.828185114E0
1.277072621E1,-7.349716187E-1,1.881587219E-1,9.796228638E0,9.825562707E0
1.278075721E1,-7.331753540E-1,1.860630798E-1,9.838590546E0,9.867625322E0
1.279078821E1,-7.240443420E-1,1.857637024E-1,9.892029419E0,9.920231569E0
1.280082021E1,-7.306306458E-1,1.742376709E-1,9.868977356E0,9.897519586E0
1.281085121E1,-7.339237976E-1,1.874102783E-1,9.819879456E0,9.849050679E0
1.282088321E1,-7.433541870E-1,2.071691895E-1,9.782008209E0,9.812399254E0
1.283091421E1,-7.860154724E-1,2.176473999E-1,9.794731750E0,9.828629649E0
1.284094621E1,-7.749385071E-1,2.083666992E-1,9.840237122E0,9.872902966E0
1.285097721E1,-7.686515808E-1,2.106120300E-1,9.816735992E0,9.849034888E0
1.286100921E1,-7.560777283E-1,2.022294617E-1,9.736502838E0,9.767908569E0
1.287104021E1,-7.611671448E-1,2.151026917E-1,9.713450775E0,9.745602626E0
1.288107221E1,-7.668553162E-1,1.983375549E-1,9.789342957E0,9.821335977E0
1.289110321E1,-7.298822021E-1,1.853146362E-1,9.959239655E0,9.987668599E0
1.290113421E1,-6.807843018E-1,1.538800049E-1,9.919123077E0,9.943648674E0
1.291116621E1,-6.827302551E-1,1.561253357E-1,9.861343231E0,9.886181571E0
1.292119721E1,-7.315287781E-1,1.534309387E-1,9.839638367E0,9.867986552E0
1.293122921E1,-7.584727478E-1,1.549278259E-1,9.793983307E0,9.824530144E0
1.294126021E1,-7.595205688E-1,1.531315613E-1,9.698481903E0,9.729381892E0
1.295129221E1,-7.632627869E-1,1.543290710E-1,9.629625092E0,9.661059308E0
1.296132321E1,-7.556286621E-1,1.495390320E-1,9.689500580E0,9.720069860E0
1.297135521E1,-7.261399841E-1,1.790277100E-1,9.773475952E0,9.802048887E0
1.298138621E1,-6.619235229E-1,1.796264648E-1,9.865085449E0,9.888898793E0
1.299141721E1,-6.469546509E-1,1.963916016E-1,9.896669769E0,9.919737522E0
1.300144921E1,-6.713539124E-1,2.088157654E-1,9.877958679E0,9.902948438E0
1.301148021E1,-7.012916565E-1,2.315684509E-1,9.863588562E0,9.891198777E0
1.302151221E1,-7.327262878E-1,2.401007080E-1,9.821226654E0,9.851448074E0
1.303154321E1,-7.569758606E-1,2.453398132E-1,9.826316071E0,9.858483230E0
1.304157521E1,-7.551795959E-1,2.315684509E-1,9.846074982E0,9.877707867E0
1.305160621E1,-7.484436035E-1,2.112107849E-1,9.871821442E0,9.902405586E0
1.306163821E1,-7.192543030E-1,1.790277100E-1,9.865983582E0,9.893786419E0
1.307166921E1,-7.075785828E-1,1.661544800E-1,9.874066772E0,9.900781251E0
1.308170121E1,-7.023394775E-1,1.435514832E-1,9.856553192E0,9.882587141E0
1.309173221E1,-6.845265198E-1,1.387614441E-1,9.842632141E0,9.867382569E0
1.310176321E1,-6.899153137E-1,1.266366577E-1,9.832153931E0,9.857143141E0
1.311179521E1,-6.843768311E-1,1.077758789E-1,9.819879456E0,9.844288690E0
1.312182621E1,-6.713539124E-1,1.245410156E-1,9.827513580E0,9.851205495E0
1.313185821E1,-6.563850403E-1,1.207987976E-1,9.845775604E0,9.868370226E0
1.314188921E1,-6.604266357E-1,1.166075134E-1,9.843979340E0,9.866797347E0
1.315192121E1,-6.724017334E-1,1.231938171E-1,9.847272491E0,9.870971397E0
1.316195221E1,-6.818321228E-1,1.440005493E-1,9.834099884E0,9.858760152E0
1.317198421E1,-6.923103333E-1,1.405577087E-1,9.836345215E0,9.861680245E0
1.318201521E1,-6.966513062E-1,1.630110168E-1,9.861941986E0,9.887861011E0
1.319204621E1,-7.114704895E-1,1.815724182E-1,9.860145721E0,9.887448227E0
1.320207821E1,-7.235952759E-1,1.926493835E-1,9.832453308E0,9.860925006E0
1.321210921E1,-7.390132141E-1,2.195933533E-1,9.814490662E0,9.844723903E0
1.322214121E1,-7.518864441E-1,2.333647156E-1,9.773326263E0,9.804983354E0
1.323217221E1,-7.788304138E-1,2.405497742E-1,9.758656769E0,9.792641265E0
1.324220421E1,-7.610174561E-1,2.149530029E-1,9.714498596E0,9.746632000E0
1.325223521E1,-7.337741089E-1,1.880090332E-1,9.762548676E0,9.791890955E0
1.326226721E1,-7.204518127E-1,1.618135071E-1,9.805808716E0,9.833571020E0
1.327229821E1,-6.969506836E-1,1.425036621E-1,9.818232880E0,9.843969953E0
1.328233021E1,-6.994953918E-1,1.396595764E-1,9.826765137E0,9.852619533E0
1.329236121E1,-6.966513062E-1,1.077758789E-1,9.862241364E0,9.887403269E0
1.330239221E1,-7.053332520E-1,1.017883301E-1,9.878557434E0,9.904229038E0
1.331242421E1,-6.872209167E-1,1.196012878E-1,9.867031403E0,9.891657382E0
1.332245521E1,-6.929090881E-1,1.445993042E-1,9.863139496E0,9.888506089E0
1.333248721E1,-6.972500610E-1,1.648072815E-1,9.842332764E0,9.868375414E0
1.334251821E1,-7.209008789E-1,1.911524963E-1,9.805509338E0,9.833831946E0
1.335254042E1,-7.409591675E-1,2.131567383E-1,9.789642334E0,9.819956889E0
1.336257142E1,-7.610174561E-1,2.263293457E-1,9.785600739E0,9.817757094E0
1.337260342E1,-7.466473389E-1,2.209405518E-1,9.806557159E0,9.837421425E0
1.338263442E1,-7.283853149E-1,2.171983337E-1,9.807604980E0,9.837013558E0
1.339266642E1,-7.415579224E-1,2.161505127E-1,9.793683929E0,9.824096605E0
1.340269742E1,-7.536827087E-1,1.986369324E-1,9.774523773E0,9.805549921E0
1.341272842E1,-7.664062500E-1,1.932481384E-1,9.770482178E0,9.802399980E0
1.342276042E1,-7.732919312E-1,1.880090332E-1,9.773625641E0,9.805971955E0
1.343279142E1,-7.749385071E-1,1.667532349E-1,9.781858521E0,9.813923397E0
1.344282342E1,-7.593708801E-1,1.673519897E-1,9.779313812E0,9.810179889E0
1.345285442E1,-7.587721252E-1,1.633103943E-1,9.793983307E0,9.824689025E0
1.346288642E1,-7.397616577E-1,1.773811340E-1,9.835596771E0,9.864972135E0
1.347291742E1,-7.343728638E-1,1.700463867E-1,9.834099884E0,9.862947825E0
1.348294942E1,-7.482939148E-1,1.799258423E-1,9.837842102E0,9.867900198E0
1.349298042E1,-7.658074951E-1,1.841171265E-1,9.836345215E0,9.867828911E0
1.350301142E1,-7.670050049E-1,1.770817566E-1,9.814041595E0,9.845560780E0
1.351304342E1,-7.737409973E-1,1.889071655E-1,9.800719299E0,9.833029026E0
1.352307442E1,-7.879614258E-1,1.860630798E-1,9.799372101E0,9.832761375E0
1.353310642E1,-7.795788574E-1,1.929487610E-1,9.818831635E0,9.851620531E0
1.354313742E1,-7.705975342E-1,1.896556091E-1,9.835596771E0,9.867560674E0
1.355316942E1,-7.469467163E-1,1.820214844E-1,9.823022919E0,9.853062492E0
1.356320042E1,-7.464976501E-1,1.962419128E-1,9.836494904E0,9.866732064E0
1.357323242E1,-7.324269104E-1,1.950444031E-1,9.843829651E0,9.872966813E0
1.358326342E1,-7.138655090E-1,1.871109009E-1,9.837842102E0,9.865482841E0
1.359329542E1,-7.122189331E-1,1.986369324E-1,9.844278717E0,9.872007693E0
1.360332642E1,-7.240443420E-1,1.821711731E-1,9.822873230E0,9.851206273E0
1.361335742E1,-7.270381165E-1,1.767823792E-1,9.820178833E0,9.848641975E0
1.362338942E1,-7.382647705E-1,1.806742859E-1,9.821675720E0,9.851040149E0
1.363342042E1,-7.393125916E-1,1.707948303E-1,9.819729767E0,9.849002319E0
1.364345242E1,-7.412585449E-1,1.797761536E-1,9.817933502E0,9.847517553E0
1.365348342E1,-7.479945374E-1,1.628613281E-1,9.821226654E0,9.851015817E0
1.366351542E1,-7.563771057E-1,1.821711731E-1,9.808802490E0,9.839608679E0
1.367354642E1,-7.577243042E-1,1.775308228E-1,9.820328522E0,9.851117479E0
1.368357842E1,-7.598199463E-1,1.704954529E-1,9.820478210E0,9.851303839E0
1.369360942E1,-7.505392456E-1,1.749861145E-1,9.789342957E0,9.819631603E0
1.370364142E1,-7.746391296E-1,1.725910950E-1,9.779762878E0,9.811911915E0
1.371367242E1,-7.940986633E-1,1.713935852E-1,9.810449066E0,9.844027597E0
1.372370342E1,-7.777825928E-1,1.826202393E-1,9.867181091E0,9.899472643E0
1.373373542E1,-7.613168335E-1,1.700463867E-1,9.882599030E0,9.913338624E0
1.374376642E1,-7.743397522E-1,1.698966980E-1,9.849368134E0,9.881220551E0
1.375379842E1,-7.831713867E-1,1.911524963E-1,9.805659027E0,9.838742077E0
1.376382942E1,-7.857160950E-1,2.100132751E-1,9.798174591E0,9.831870660E0
1.377386142E1,-7.725434875E-1,1.986369324E-1,9.823022919E0,9.855356885E0
1.378389242E1,-7.846682739E-1,1.945953369E-1,9.840237122E0,9.873390413E0
1.379392442E1,-7.620652771E-1,1.898052979E-1,9.772278442E0,9.803784754E0
1.380395542E1,-7.590715027E-1,1.902543640E-1,9.689350891E0,9.720900522E0
1.381398742E1,-7.726931763E-1,2.098635864E-1,9.760003967E0,9.792791988E0
1.382401842E1,-7.363188171E-1,1.899549866E-1,9.984087982E0,1.001300460E1
1.383404942E1,-6.715036011E-1,1.475930786E-1,9.988878021E0,1.001251142E1
1.384408142E1,-6.587800598E-1,1.306782532E-1,9.852960663E0,9.875824107E0
1.385411242E1,-7.243437195E-1,1.478924561E-1,9.808952179E0,9.836772278E0
1.386414442E1,-7.906558228E-1,1.624122620E-1,9.767638092E0,9.800932010E0
1.387417542E1,-7.988887024E-1,1.559756470E-1,9.683513031E0,9.717663103E0
1.388420742E1,-7.740403748E-1,1.377136230E-1,9.621392212E0,9.653460086E0
1.389423842E1,-7.625143433E-1,1.499880981E-1,9.664652252E0,9.695845900E0
1.390427042E1,-7.262896729E-1,1.320254517E-1,9.776619415E0,9.804448715E0
1.391430142E1,-6.709048462E-1,1.624122620E-1,9.864037628E0,9.888161072E0
1.392433342E1,-6.518943787E-1,1.898052979E-1,9.934241638E0,9.957416796E0
1.393436442E1,-6.598278809E-1,1.920506287E-1,9.928703156E0,9.952457115E0
1.394439542E1,-7.229965210E-1,2.080673218E-1,9.885293427E0,9.913881284E0
1.395442742E1,-7.631130981E-1,2.234852600E-1,9.837542725E0,9.869626848E0
1.396445842E1,-7.855664063E-1,2.207908630E-1,9.828411713E0,9.862227942E0
1.397449042E1,-7.782316589E-1,2.433938599E-1,9.834548950E0,9.868294591E0
1.398452142E1,-7.659571838E-1,2.258802795E-1,9.849667511E0,9.881986763E0
1.399455342E1,-7.632627869E-1,2.142045593E-1,9.876012726E0,9.907778814E0
1.400458442E1,-7.420069885E-1,1.945953369E-1,9.866582336E0,9.896357346E0
1.401461642E1,-7.223977661E-1,1.842668152E-1,9.859397278E0,9.887544057E0
1.402464742E1,-7.035369873E-1,1.618135071E-1,9.839488678E0,9.865935604E0
1.403467942E1,-7.006929016E-1,1.468446350E-1,9.816586304E0,9.842657189E0
1.404471042E1,-7.062313843E-1,1.365161133E-1,9.823022919E0,9.849323768E0
1.405474142E1,-6.908134460E-1,1.300794983E-1,9.800719299E0,9.825896533E0
1.406477342E1,-6.896159363E-1,1.178050232E-1,9.810748444E0,9.835661299E0
1.407480442E1,-6.777905273E-1,1.224453735E-1,9.818831635E0,9.842959288E0
1.408483642E1,-6.893165588E-1,1.312770081E-1,9.831106110E0,9.856116797E0
1.409486742E1,-6.915618896E-1,1.202000427E-1,9.857151947E0,9.882112649E0
1.410489942E1,-6.884184265E-1,1.538800049E-1,9.853110352E0,9.878328937E0
1.411493042E1,-7.137158203E-1,1.622625732E-1,9.874216461E0,9.901306486E0
1.412496242E1,-7.243437195E-1,1.972897339E-1,9.898166656E0,9.926595601E0
1.413499342E1,-7.363188171E-1,2.158511353E-1,9.864187317E0,9.893985473E0
1.414502542E1,-7.581733704E-1,2.110610962E-1,9.824220428E0,9.855692805E0
1.415505642E1,-7.746391296E-1,2.493814087E-1,9.800569611E0,9.834298224E0
1.416508742E1,-7.839198303E-1,2.733316040E-1,9.760153656E0,9.795398912E0
1.417511942E1,-8.023315430E-1,2.630030823E-1,9.733808441E0,9.770359937E0
1.418515042E1,-7.806266785E-1,2.254312134E-1,9.751771088E0,9.785562661E0
1.419518242E1,-7.282356262E-1,1.978884888E-1,9.822274475E0,9.851221389E0
1.420521342E1,-7.045848083E-1,1.811233521E-1,9.830657043E0,9.857538401E0
1.421524542E1,-7.165599060E-1,1.577719116E-1,9.804461517E0,9.831877528E0
1.422527642E1,-7.117698669E-1,1.510359192E-1,9.834998016E0,9.861876808E0
1.423530842E1,-7.265890503E-1,1.314266968E-1,9.871522064E0,9.899098570E0
1.424533942E1,-7.123686218E-1,1.381626892E-1,9.896071014E0,9.922639745E0
1.425537142E1,-7.045848083E-1,1.387614441E-1,9.887239380E0,9.913283868E0
1.426540242E1,-7.000941467E-1,1.592687988E-1,9.884694672E0,9.910735952E0
1.427543342E1,-7.212002563E-1,1.875599670E-1,9.865384827E0,9.893489088E0
1.428546542E1,-7.391629028E-1,1.948947144E-1,9.815837860E0,9.845558321E0
1.429549642E1,-7.243437195E-1,2.170486450E-1,9.815987549E0,9.845069603E0
1.430552842E1,-7.307803345E-1,2.206411743E-1,9.800569611E0,9.830253665E0
1.431555942E1,-7.301815796E-1,2.221380615E-1,9.811197510E0,9.840838736E0
1.432559142E1,-7.294331360E-1,2.206411743E-1,9.811796265E0,9.841346512E0
1.433562242E1,-7.354206848E-1,2.233355713E-1,9.816735992E0,9.846777539E0
1.434565442E1,-7.533833313E-1,2.149530029E-1,9.800719299E0,9.831983016E0
1.435568517E1,-7.637118530E-1,1.978884888E-1,9.791288910E0,9.823021641E0
1.436571717E1,-7.759863281E-1,1.911524963E-1,9.783654785E0,9.816241389E0
1.437574817E1,-7.899073792E-1,1.850152588E-1,9.788145447E0,9.821709403E0
1.438577917E1,-7.689509583E-1,1.802252197E-1,9.810000000E0,9.841741040E0
1.439581117E1,-7.581733704E-1,1.887574768E-1,9.825118561E0,9.856135702E0
1.440584217E1,-7.415579224E-1,1.833686829E-1,9.824669495E0,9.854322042E0
1.441587417E1,-7.466473389E-1,1.947450256E-1,9.848470001E0,9.878652197E0
1.442590517E1,-7.539820862E-1,2.125579834E-1,9.840835876E0,9.871966401E0
1.443593717E1,-7.629634094E-1,1.962419128E-1,9.821675720E0,9.853219677E0
1.444596817E1,-7.756869507E-1,2.097138977E-1,9.809401245E0,9.842257005E0
1.445600017E1,-7.834707642E-1,2.032772827E-1,9.799072723E0,9.832444982E0
1.446603117E1,-7.750881958E-1,2.025288391E-1,9.802814941E0,9.835494925E0
1.447606317E1,-7.691006470E-1,2.094145203E-1,9.811945953E0,9.844270092E0
1.448609417E1,-7.547305298E-1,2.065704346E-1,9.834998016E0,9.866077007E0
1.449612517E1,-7.393125916E-1,2.028282166E-1,9.841135254E0,9.870950586E0
1.450615717E1,-7.297325134E-1,1.981878662E-1,9.836345215E0,9.865367462E0
1.451618817E1,-7.330256653E-1,1.924996948E-1,9.832303619E0,9.861469324E0
1.452622017E1,-7.140151978E-1,2.022294617E-1,9.847571869E0,9.875494224E0
1.453625117E1,-7.129673767E-1,2.001338196E-1,9.840536499E0,9.868360280E0
1.454628317E1,-7.204518127E-1,2.183958435E-1,9.835746460E0,9.864514990E0
1.455631417E1,-7.200027466E-1,1.993853760E-1,9.821076965E0,9.849452332E0
1.456634617E1,-7.217990112E-1,1.939965820E-1,9.816586304E0,9.844998484E0
1.457637717E1,-7.300318909E-1,2.038760376E-1,9.826765137E0,9.855953787E0
1.458640917E1,-7.315287781E-1,1.977388000E-1,9.819430389E0,9.848626714E0
1.459644017E1,-7.384144592E-1,1.929487610E-1,9.810598755E0,9.840240498E0
1.460647117E1,-7.393125916E-1,2.002835083E-1,9.817933502E0,9.847766998E0
1.461650317E1,-7.355703735E-1,2.148033142E-1,9.809700623E0,9.839584877E0
1.462653417E1,-7.599696350E-1,2.130070496E-1,9.812544708E0,9.844234836E0
1.463656617E1,-7.599696350E-1,2.035766602E-1,9.840686188E0,9.872087011E0
1.464659717E1,-7.623646545E-1,2.067201233E-1,9.912087708E0,9.943511241E0
1.465662917E1,-7.414082336E-1,1.954934692E-1,9.882299652E0,9.912000317E0
1.466666017E1,-7.595205688E-1,2.086660767E-1,9.821675720E0,9.853208969E0
1.467669217E1,-7.855664063E-1,2.195933533E-1,9.748777313E0,9.782841863E0
1.468672317E1,-8.129594421E-1,2.348616028E-1,9.746382294E0,9.783048137E0
1.469675517E1,-8.089178467E-1,2.215393066E-1,9.784702606E0,9.820582103E0
1.470678617E1,-7.665559387E-1,2.252815247E-1,9.827663269E0,9.860087479E0
1.471681717E1,-7.438032532E-1,2.234852600E-1,9.745035095E0,9.775934633E0
1.472684917E1,-7.604187012E-1,2.356100464E-1,9.749675446E0,9.782122469E0
1.473688017E1,-7.544311523E-1,2.248324585E-1,9.866432648E0,9.897788096E0
1.474691217E1,-7.089257812E-1,1.930984497E-1,1.001552261E1,1.004243775E1
1.475694317E1,-6.533912659E-1,1.926493835E-1,9.939480743E0,9.962796363E0
1.476697517E1,-6.777905273E-1,1.854643250E-1,9.826016693E0,9.851111667E0
1.477700617E1,-7.629634094E-1,1.930984497E-1,9.789792023E0,9.821376076E0
1.478703817E1,-7.908055115E-1,1.935475159E-1,9.732610931E0,9.766603787E0
1.479706917E1,-7.658074951E-1,1.920506287E-1,9.693242798E0,9.725343207E0
1.480710117E1,-7.282356262E-1,1.805245972E-1,9.662855988E0,9.691940058E0
1.481713217E1,-7.155120850E-1,1.800755310E-1,9.710307312E0,9.738298251E0
1.482716317E1,-6.858737183E-1,1.642085266E-1,9.817933502E0,9.843231454E0
1.483719517E1,-6.575825500E-1,1.767823792E-1,9.902507629E0,9.925891606E0
1.484722617E1,-6.520440674E-1,1.920506287E-1,9.916877747E0,9.940146334E0
1.485725817E1,-6.860234070E-1,2.065704346E-1,9.892328796E0,9.918239182E0
1.486728917E1,-7.342231750E-1,2.218386841E-1,9.843530273E0,9.873367425E0
1.487732117E1,-7.722441101E-1,2.499801636E-1,9.836644592E0,9.870077400E0
1.488735217E1,-7.641609192E-1,2.630030823E-1,9.816586304E0,9.849795896E0
1.489738417E1,-7.679031372E-1,2.628533936E-1,9.824220428E0,9.857691117E0
1.490741517E1,-7.734416199E-1,2.606080627E-1,9.833800507E0,9.867611712E0
1.491744717E1,-7.348219299E-1,2.520758057E-1,9.847571869E0,9.878166692E0
1.492747817E1,-7.336244202E-1,2.396516418E-1,9.856702881E0,9.886871567E0
1.493751017E1,-7.128176880E-1,2.215393066E-1,9.851164398E0,9.879404270E0
1.494754117E1,-6.935078430E-1,2.083666992E-1,9.849966888E0,9.876548867E0
1.495757217E1,-6.840774536E-1,1.772314453E-1,9.832303619E0,9.857665414E0
1.496760417E1,-6.906637573E-1,1.514849854E-1,9.835596771E0,9.860980072E0
1.497763517E1,-6.812333679E-1,1.414558411E-1,9.829309845E0,9.853903830E0
1.498766717E1,-6.890171814E-1,1.261875916E-1,9.812095642E0,9.837067087E0
1.499769817E1,-6.854246521E-1,1.432521057E-1,9.809700623E0,9.834660870E0
1.500773017E1,-6.861730957E-1,1.450483704E-1,9.828112335E0,9.853104314E0
1.501776117E1,-6.807843018E-1,1.625619507E-1,9.843081207E0,9.867935007E0
1.502779317E1,-6.903643799E-1,1.814227295E-1,9.868977356E0,9.894757765E0
1.503782417E1,-6.920109558E-1,2.058219910E-1,9.877808990E0,9.904158334E0
1.504785617E1,-7.174580383E-1,2.251318359E-1,9.900711365E0,9.929225343E0
1.505788717E1,-7.197033691E-1,2.395019531E-1,9.872719574E0,9.901814274E0
1.506791817E1,-7.535330200E-1,2.556683350E-1,9.822873230E0,9.855050320E0
1.507795017E1,-7.629634094E-1,2.829116821E-1,9.804760895E0,9.838469819E0
1.508798117E1,-7.801776123E-1,2.962339783E-1,9.766440582E0,9.802030061E0
1.509801317E1,-7.957452393E-1,2.691403198E-1,9.726174316E0,9.762382590E0
1.510804417E1,-7.707472229E-1,2.472857666E-1,9.777367859E0,9.810816672E0
1.511807617E1,-7.093748474E-1,2.182461548E-1,9.832303619E0,9.860275783E0
1.512810717E1,-6.727011108E-1,1.977388000E-1,9.820777588E0,9.845775736E0
1.513813917E1,-6.927593994E-1,1.895059204E-1,9.804012451E0,9.830284239E0
1.514817017E1,-7.111711121E-1,1.715432739E-1,9.816286926E0,9.843509560E0
1.515820217E1,-7.018904114E-1,1.682501221E-1,9.839638367E0,9.866075281E0
1.516823317E1,-7.026388550E-1,1.576222229E-1,9.873318329E0,9.899543472E0
1.517826417E1,-6.842271423E-1,1.808239746E-1,9.883048096E0,9.908355250E0
1.518829617E1,-6.971003723E-1,1.905537415E-1,9.897867279E0,9.924214646E0
1.519832717E1,-7.084767151E-1,2.139051819E-1,9.882748718E0,9.910419613E0
1.520835917E1,-7.240443420E-1,2.374063110E-1,9.842781830E0,9.872231567E0
1.521839017E1,-7.283853149E-1,2.420466614E-1,9.809251556E0,9.839235125E0
1.522842217E1,-7.339237976E-1,2.564167786E-1,9.774673462E0,9.805541035E0
1.523845317E1,-7.421566772E-1,2.558180237E-1,9.783804474E0,9.815246781E0
1.524848517E1,-7.182064819E-1,2.606080627E-1,9.811796265E0,9.841498009E0
1.525851617E1,-7.198530579E-1,2.453398132E-1,9.809251556E0,9.838688741E0
1.526854817E1,-7.505392456E-1,2.273771667E-1,9.804760895E0,9.836073695E0
1.527857917E1,-7.550299072E-1,2.393522644E-1,9.811945953E0,9.843863218E0
1.528861017E1,-7.649093628E-1,2.185455322E-1,9.786498871E0,9.818778368E0
1.529864217E1,-7.719447327E-1,2.023791504E-1,9.780810699E0,9.813313096E0
1.530867317E1,-7.692503357E-1,1.904040527E-1,9.787846069E0,9.819874259E0
1.531870517E1,-7.436535645E-1,2.052232361E-1,9.824669495E0,9.854910851E0
1.532873617E1,-7.301815796E-1,2.035766602E-1,9.844278717E0,9.873420484E0
1.533876817E1,-7.303312683E-1,2.182461548E-1,9.864786072E0,9.894191194E0
1.534879917E1,-7.518864441E-1,2.157014465E-1,9.852810974E0,9.883812242E0
1.535883158E1,-7.568261719E-1,2.195933533E-1,9.837393036E0,9.868906162E0
1.536886258E1,-7.725434875E-1,2.384541321E-1,9.804461517E0,9.837741075E0
1.537889458E1,-7.824229431E-1,2.393522644E-1,9.795031128E0,9.829145943E0
1.538892558E1,-7.801776123E-1,2.291734314E-1,9.807155914E0,9.840808132E0
1.539895758E1,-7.572752380E-1,2.439926147E-1,9.825867004E0,9.858025186E0
1.540898858E1,-7.450007629E-1,2.321672058E-1,9.831704865E0,9.862623804E0
1.541901958E1,-7.292834473E-1,2.240840149E-1,9.834698639E0,9.864246819E0
1.542905158E1,-7.298822021E-1,2.163002014E-1,9.843530273E0,9.872922670E0
1.543908258E1,-7.167095947E-1,2.115101624E-1,9.858349457E0,9.886630528E0
1.544911458E1,-7.023394775E-1,2.050735474E-1,9.840386810E0,9.867550277E0
1.545914558E1,-7.060816956E-1,2.013313293E-1,9.835147705E0,9.862515706E0
1.546917758E1,-7.258406067E-1,2.094145203E-1,9.827363892E0,9.856357344E0
1.547920858E1,-7.212002563E-1,2.189945984E-1,9.821675720E0,9.850553406E0
1.548924058E1,-7.300318909E-1,1.975891113E-1,9.826016693E0,9.855079506E0
1.549927158E1,-7.240443420E-1,2.055226135E-1,9.817484436E0,9.846292724E0
1.550930358E1,-7.176077271E-1,2.171983337E-1,9.829010468E0,9.857564747E0
1.551933458E1,-7.198530579E-1,2.269281006E-1,9.837692413E0,9.866604117E0
1.552936558E1,-7.325765991E-1,2.329156494E-1,9.835896149E0,9.865889277E0
1.553939758E1,-7.376660156E-1,2.326162720E-1,9.815089417E0,9.845518866E0
1.554942858E1,-7.433541870E-1,2.246827698E-1,9.808802490E0,9.839495113E0
1.555946058E1,-7.455995178E-1,2.270777893E-1,9.824370117E0,9.855238767E0
1.556949158E1,-7.659571838E-1,2.119592285E-1,9.875563660E0,9.907490839E0
1.557952358E1,-7.625143433E-1,2.209405518E-1,9.911039886E0,9.942784041E0
1.558955458E1,-7.342231750E-1,2.309696960E-1,9.846973114E0,9.877009172E0
1.559958658E1,-7.556286621E-1,2.559677124E-1,9.783654785E0,9.816129334E0
1.560961758E1,-7.997868347E-1,2.664459229E-1,9.755513306E0,9.791868681E0
1.561964958E1,-8.017327881E-1,2.520758057E-1,9.767787781E0,9.803876570E0
1.562968058E1,-7.848179626E-1,2.522254944E-1,9.842781830E0,9.877242079E0
1.563971258E1,-7.629634094E-1,2.327659607E-1,9.812095642E0,9.844466164E0
1.564974358E1,-7.559280396E-1,2.291734314E-1,9.748627625E0,9.780577091E0
1.565977458E1,-7.488926697E-1,2.281256104E-1,9.792486420E0,9.823730035E0
1.566980658E1,-7.399113464E-1,1.971400452E-1,9.923314362E0,9.952813719E0
1.567983758E1,-6.936575317E-1,1.829196167E-1,1.000040405E1,1.002610102E1
1.568986958E1,-6.673123169E-1,1.727407837E-1,9.884844360E0,9.908849234E0
1.569990058E1,-7.048841858E-1,1.814227295E-1,9.837842102E0,9.864730769E0
1.570993258E1,-7.460485840E-1,1.883084106E-1,9.776170349E0,9.806403787E0
1.571996358E1,-7.644602966E-1,1.886077881E-1,9.721833344E0,9.753666798E0
1.572999558E1,-7.396119690E-1,1.862127686E-1,9.647587738E0,9.677688269E0
1.574002658E1,-7.201524353E-1,1.875599670E-1,9.653275909E0,9.681917891E0
1.575005858E1,-7.105723572E-1,1.694476318E-1,9.739197235E0,9.766554580E0
1.576008958E1,-6.810836792E-1,1.712438965E-1,9.849068756E0,9.874074884E0
1.577012058E1,-6.369255066E-1,2.125579834E-1,9.911189575E0,9.933908284E0
1.578015258E1,-6.517446899E-1,2.164498901E-1,9.919422455E0,9.943166675E0
1.579018358E1,-7.105723572E-1,2.342628479E-1,9.881102142E0,9.909388059E0
1.580021558E1,-7.378157043E-1,2.526745605E-1,9.842482452E0,9.873331620E0
1.581024658E1,-7.617658997E-1,2.668949890E-1,9.820178833E0,9.853295516E0
1.582027858E1,-7.845185852E-1,2.745291138E-1,9.807904358E0,9.843059663E0
1.583030958E1,-7.774832153E-1,2.737806702E-1,9.824370117E0,9.858888589E0
1.584034158E1,-7.575746155E-1,2.516267395E-1,9.846074982E0,9.878381844E0
1.585037258E1,-7.316784668E-1,2.305206299E-1,9.864636383E0,9.894419847E0
1.586040458E1,-7.126679993E-1,2.092648315E-1,9.874964905E0,9.902859149E0
1.587043558E1,-7.030879211E-1,2.001338196E-1,9.855205994E0,9.882280675E0
1.588046758E1,-6.771917725E-1,1.531315613E-1,9.836644592E0,9.861116306E0
1.589049858E1,-6.794371033E-1,1.359173584E-1,9.821076965E0,9.845489377E0
1.590052958E1,-6.797364807E-1,1.306782532E-1,9.815538483E0,9.839914339E0
1.591056158E1,-6.722520447E-1,1.293310547E-1,9.826765137E0,9.850581830E0
1.592059258E1,-6.770420837E-1,1.279838562E-1,9.829309845E0,9.853430767E0
1.593062458E1,-6.604266357E-1,1.326242065E-1,9.831405487E0,9.854455154E0
1.594065558E1,-6.735992432E-1,1.472937012E-1,9.828112335E0,9.852269964E0
1.595068758E1,-6.830296326E-1,1.504371643E-1,9.826316071E0,9.851174972E0
1.596071858E1,-6.884184265E-1,1.737886047E-1,9.842931519E0,9.868506639E0
1.597075058E1,-6.903643799E-1,1.927990723E-1,9.895621948E0,9.921547672E0
1.598078158E1,-7.039860535E-1,2.200424194E-1,9.909842377E0,9.937252687E0
1.599081358E1,-7.182064819E-1,2.417472839E-1,9.878258057E0,9.907282399E0
1.600084458E1,-7.499404907E-1,2.598596191E-1,9.864486694E0,9.896364762E0
1.601087558E1,-7.508386230E-1,2.893482971E-1,9.814939728E0,9.847868954E0
1.602090758E1,-7.755372620E-1,2.883004761E-1,9.747729492E0,9.782781070E0
1.603093858E1,-7.902067566E-1,2.691403198E-1,9.740095367E0,9.775802831E0
1.604097058E1,-7.565267944E-1,2.510279846E-1,9.779164124E0,9.811595120E0
1.605100158E1,-6.984475708E-1,2.285746765E-1,9.823022919E0,9.850474844E0
1.606103358E1,-6.788383484E-1,2.064207458E-1,9.830207977E0,9.855781040E0
1.607106458E1,-6.920109558E-1,1.983375549E-1,9.838889923E0,9.865189905E0
1.608109658E1,-6.863227844E-1,1.775308228E-1,9.834399261E0,9.859917088E0
1.609112758E1,-6.851252747E-1,1.613644409E-1,9.859996033E0,9.885087602E0
1.610115958E1,-7.005432129E-1,1.718426514E-1,9.868528290E0,9.894854284E0
1.611119058E1,-6.872209167E-1,1.845661926E-1,9.866282959E0,9.891909659E0
1.612122158E1,-6.846762085E-1,1.968406677E-1,9.872719574E0,9.898389745E0
1.613125358E1,-7.132667542E-1,2.052232361E-1,9.857002258E0,9.884905642E0
1.614128458E1,-7.126679993E-1,2.249821472E-1,9.820777588E0,9.849171796E0
1.615131658E1,-7.258406067E-1,2.270777893E-1,9.783355408E0,9.812871748E0
1.616134758E1,-7.216493225E-1,2.254312134E-1,9.795330505E0,9.824464193E0
1.617137958E1,-7.183561707E-1,2.483335876E-1,9.802814941E0,9.832237077E0
1.618141058E1,-7.203021240E-1,2.350112915E-1,9.809251556E0,9.838469472E0
1.619144258E1,-7.327262878E-1,2.323168945E-1,9.808503113E0,9.838576740E0
1.620147358E1,-7.538323975E-1,2.261796570E-1,9.786049805E0,9.817646933E0
1.621150558E1,-7.601193237E-1,2.134561157E-1,9.771080933E0,9.802926476E0
1.622153658E1,-7.629634094E-1,2.125579834E-1,9.765093384E0,9.797159938E0
1.623156858E1,-7.566764832E-1,2.062710571E-1,9.763746185E0,9.795195078E0
1.624159958E1,-7.625143433E-1,2.023791504E-1,9.793833618E0,9.825556594E0
1.625163058E1,-7.466473389E-1,2.107617188E-1,9.810299377E0,9.840928647E0
1.626166258E1,-7.313790894E-1,2.137554932E-1,9.824819183E0,9.854322847E0
1.627169358E1,-7.358697510E-1,2.128573608E-1,9.833052063E0,9.862845706E0
1.628172558E1,-7.360194397E-1,2.080673218E-1,9.824370117E0,9.854098884E0
1.629175658E1,-7.580236816E-1,2.136058044E-1,9.824070740E0,9.855586905E0
1.630178858E1,-7.637118530E-1,2.094145203E-1,9.819729767E0,9.851609154E0
1.631181958E1,-7.598199463E-1,2.110610962E-1,9.798324280E0,9.830006705E0
1.632185158E1,-7.658074951E-1,2.124082947E-1,9.805209961E0,9.837363508E0
1.633188258E1,-7.448510742E-1,2.092648315E-1,9.815837860E0,9.846281927E0
1.634191458E1,-7.288343811E-1,2.013313293E-1,9.825717316E0,9.854768116E0
1.635194567E1,-7.301815796E-1,1.965412903E-1,9.819580078E0,9.848652016E0
1.636197767E1,-7.171586609E-1,2.016307068E-1,9.837243347E0,9.865410694E0
1.637200867E1,-7.134164429E-1,1.911524963E-1,9.836943970E0,9.864632226E0
1.638203967E1,-7.008425903E-1,1.874102783E-1,9.827513580E0,9.854254214E0
1.639207167E1,-7.020401001E-1,1.797761536E-1,9.814041595E0,9.840761770E0
1.640210267E1,-7.051835632E-1,1.823208618E-1,9.808652802E0,9.835659334E0
1.641213467E1,-7.068301392E-1,1.987866211E-1,9.788893890E0,9.816392849E0
1.642216567E1,-7.170089722E-1,2.025288391E-1,9.787546692E0,9.815864203E0
1.643219767E1,-7.183561707E-1,2.098635864E-1,9.781708832E0,9.810295917E0
1.644222867E1,-7.250921631E-1,2.145039368E-1,9.783056030E0,9.812235009E0
