"Time (s)","Acceleration x (m/s^2)","Acceleration y (m/s^2)","Acceleration z (m/s^2)","Absolute acceleration (m/s^2)"
-5.207916838E-4,6.222560120E-1,-9.520202637E-2,1.011132339E1,1.013089960E1
9.511208336E-3,4.634362793E-1,4.370910645E-2,9.598340149E0,9.609621079E0
1.954220835E-2,3.838018799E-1,2.245330811E-2,9.166637878E0,9.174696618E0
2.957420831E-2,2.486329651E-1,1.422042847E-2,8.979227600E0,8.982680494E0
3.960520832E-2,1.779798889E-1,2.469863892E-2,9.117989044E0,9.119759376E0
4.963720834E-2,2.168989563E-1,8.068222046E-2,9.488917694E0,9.491739239E0
5.966820836E-2,3.373983765E-1,1.127156067E-1,9.918823700E0,9.925200555E0
6.970020832E-2,4.580474854E-1,9.475296021E-2,1.021670425E1,1.022740590E1
7.973120833E-2,5.258564758E-1,5.882766724E-2,1.029229706E1,1.030588979E1
8.976220834E-2,5.390290833E-1,2.724334717E-2,1.020293289E1,1.021719796E1
9.979420836E-2,5.245092773E-1,1.377136230E-2,1.003528152E1,1.004898875E1
1.098252083E-1,4.830455017E-1,1.437011719E-2,9.834848328E0,9.846714228E0
1.198572083E-1,4.131408691E-1,3.367996216E-2,9.683363342E0,9.692231185E0
1.298882084E-1,3.553610229E-1,4.805007935E-2,9.596843262E0,9.603540538E0
1.399202083E-1,3.317102051E-1,6.271957397E-2,9.615704041E0,9.621628220E0
1.499512083E-1,3.474275208E-1,6.481521606E-2,9.748927002E0,9.755331085E0
1.599832083E-1,3.951782227E-1,7.289840698E-2,9.878108368E0,9.886278619E0
1.700142084E-1,4.328997803E-1,7.065307617E-2,9.940079498E0,9.949752485E0
1.800462083E-1,4.499642944E-1,8.173004150E-2,9.964927826E0,9.975416495E0
1.900772083E-1,4.543052673E-1,7.304809570E-2,9.952054596E0,9.962686384E0
2.001082083E-1,4.483177185E-1,7.080276489E-2,9.908495178E0,9.918884943E0
2.101402084E-1,4.444258118E-1,5.942642212E-2,9.880802765E0,9.890971089E0
2.201712083E-1,4.376898193E-1,7.723937988E-2,9.828860779E0,9.838904538E0
2.302032083E-1,4.089495850E-1,8.861572266E-2,9.724677429E0,9.733675750E0
2.402342084E-1,3.826043701E-1,8.038284302E-2,9.738748169E0,9.746592400E0
2.502662083E-1,3.980223083E-1,7.918533325E-2,9.856852570E0,9.865203224E0
2.602972083E-1,4.255650330E-1,5.777984619E-2,9.937385101E0,9.946661086E0
2.703292083E-1,4.848417664E-1,5.104385376E-2,9.875413971E0,9.887440423E0
2.803602084E-1,4.716691589E-1,4.086502075E-2,9.840386810E0,9.851769096E0
2.903912083E-1,4.239184570E-1,2.395019531E-2,9.838590546E0,9.847748189E0
3.004232083E-1,3.899391174E-1,4.071533203E-2,9.795929260E0,9.803771740E0
3.104542083E-1,3.851490784E-1,5.209167480E-2,9.745035095E0,9.752782288E0
3.204862084E-1,3.942800903E-1,5.358856201E-2,9.760602722E0,9.768709947E0
3.305172083E-1,3.995191956E-1,5.403762817E-2,9.822723541E0,9.830993511E0
3.405492083E-1,4.360432434E-1,6.301895142E-2,9.868079224E0,9.877909326E0
3.505802084E-1,4.718188477E-1,8.696914673E-2,9.872719574E0,9.884369906E0
3.606122083E-1,4.571493530E-1,1.266366577E-1,9.859546967E0,9.870951766E0
3.706432083E-1,4.346960449E-1,1.384620667E-1,9.818831635E0,9.829424554E0
3.806742083E-1,4.171824646E-1,1.233435059E-1,9.815239105E0,9.824875242E0
3.907062084E-1,4.049079895E-1,1.318757629E-1,9.838889923E0,9.848101168E0
4.007372083E-1,4.113446045E-1,1.139131165E-1,9.883796539E0,9.893008370E0
4.107692083E-1,4.355941772E-1,1.077758789E-1,9.934391327E0,9.944520550E0
4.208002083E-1,4.574487305E-1,8.457412720E-2,9.942025452E0,9.952903205E0
4.308322084E-1,4.420307922E-1,6.376739502E-2,9.952503662E0,9.962519091E0
4.408632083E-1,4.385879517E-1,4.894821167E-2,9.940079498E0,9.949871142E0
4.508952083E-1,4.399351501E-1,5.269042969E-2,9.901459808E0,9.911368501E0
4.609262084E-1,4.400848389E-1,6.256988525E-2,9.850865021E0,9.860888972E0
4.709582083E-1,4.290078735E-1,6.541397095E-2,9.818382568E0,9.827968407E0
4.809892083E-1,4.399351501E-1,6.137237549E-2,9.809550934E0,9.819602794E0
4.910212083E-1,4.408332825E-1,7.604187012E-2,9.830806732E0,9.840979492E0
5.010522084E-1,4.577481079E-1,6.122268677E-2,9.855056305E0,9.865871291E0
5.110832083E-1,4.650828552E-1,6.556365967E-2,9.881102142E0,9.892258600E0
5.211152083E-1,4.788542175E-1,7.888595581E-2,9.873318329E0,9.885238448E0
5.311462083E-1,4.733157349E-1,8.202941895E-2,9.875863037E0,9.887538993E0
5.411782083E-1,4.574487305E-1,7.259902954E-2,9.900861053E0,9.911689037E0
5.512092083E-1,4.626878357E-1,5.882766724E-2,9.824519806E0,9.835584891E0
5.612412083E-1,4.459226990E-1,8.951385498E-2,9.848919067E0,9.859415124E0
5.712722084E-1,4.384382629E-1,1.228944397E-1,9.873468018E0,9.883961850E0
5.813042083E-1,4.391867065E-1,1.077758789E-1,9.804012451E0,9.814436344E0
5.913352083E-1,4.038601685E-1,1.098715210E-1,9.807006226E0,9.815933267E0
6.013662083E-1,4.240681458E-1,1.131646729E-1,9.789792023E0,9.799625905E0
6.113982084E-1,4.694238281E-1,1.148112488E-1,9.815987549E0,9.827876267E0
6.214292083E-1,4.671784973E-1,1.290316772E-1,9.892628174E0,9.904493784E0
6.314612083E-1,4.737648010E-1,1.137634277E-1,9.924960938E0,9.936913244E0
6.414922083E-1,4.617897034E-1,9.789642334E-2,9.902357941E0,9.913603090E0
6.515242083E-1,4.677772522E-1,8.831634521E-2,9.901010742E0,9.912448187E0
6.615552083E-1,4.456233215E-1,1.017883301E-1,9.869875488E0,9.880454603E0
6.715872083E-1,4.456233215E-1,1.023870850E-1,9.844727783E0,9.855340095E0
6.816182084E-1,4.555027771E-1,1.131646729E-1,9.823771362E0,9.834977011E0
6.916502083E-1,4.614903259E-1,1.133143616E-1,9.849218445E0,9.860675303E0
7.016812083E-1,4.715194702E-1,1.113684082E-1,9.862540741E0,9.874433827E0
7.117122083E-1,4.793032837E-1,9.744735718E-2,9.855205994E0,9.867335649E0
7.217442084E-1,4.882846069E-1,7.708969116E-2,9.879305878E0,9.891665649E0
7.317752083E-1,4.954696655E-1,7.319778442E-2,9.882599030E0,9.895282294E0
7.418072083E-1,4.866380310E-1,6.496490479E-2,9.880204010E0,9.892394467E0
7.518382084E-1,4.775070190E-1,5.718109131E-2,9.828711090E0,9.840469721E0
7.618702083E-1,4.444258118E-1,4.969665527E-2,9.812095642E0,9.822281046E0
7.719012083E-1,4.120930481E-1,6.706054688E-2,9.795480194E0,9.804374025E0
7.819332083E-1,4.382885742E-1,7.379653931E-2,9.795031128E0,9.805109770E0
7.919642084E-1,4.311035156E-1,8.023315430E-2,9.807006226E0,9.816804913E0
8.019962083E-1,4.584965515E-1,1.131646729E-1,9.841284943E0,9.852609535E0
8.120272083E-1,4.839436340E-1,1.161584473E-1,9.851314087E0,9.863877709E0
8.220582083E-1,4.939727783E-1,1.288819885E-1,9.856403503E0,9.869615479E0
8.320902084E-1,4.857398987E-1,1.233435059E-1,9.865085449E0,9.877806831E0
8.421212083E-1,4.860392761E-1,1.279838562E-1,9.876162415E0,9.888943224E0
8.521532083E-1,4.827461243E-1,1.299298096E-1,9.854607239E0,9.867279737E0
8.621842084E-1,4.830455017E-1,1.173559570E-1,9.861941986E0,9.874462270E0
8.722162083E-1,4.668791199E-1,1.068777466E-1,9.854457550E0,9.866090035E0
8.822472083E-1,4.604425049E-1,1.082249451E-1,9.858648834E0,9.869988692E0
8.922792083E-1,4.634362793E-1,1.125659180E-1,9.852361908E0,9.863897781E0
9.023102084E-1,4.803511047E-1,1.059796143E-1,9.833650818E0,9.845946235E0
9.123412083E-1,4.746629333E-1,9.220825195E-2,9.833052063E0,9.844933729E0
9.223732083E-1,4.646337891E-1,9.325607300E-2,9.832752686E0,9.844166122E0
9.324042083E-1,4.754113770E-1,9.580078125E-2,9.855355682E0,9.867280750E0
9.424362084E-1,4.882846069E-1,7.888595581E-2,9.876012726E0,9.888390780E0
9.524672083E-1,4.903802490E-1,8.352630615E-2,9.877659302E0,9.890177082E0
9.624992083E-1,4.918771362E-1,9.684860229E-2,9.846374359E0,9.859128298E0
9.725302084E-1,4.784051514E-1,1.022373962E-1,9.812844086E0,9.825030943E0
9.825622083E-1,4.544549561E-1,1.178050232E-1,9.790540466E0,9.801790140E0
9.925932083E-1,4.667294312E-1,1.110690308E-1,9.819879456E0,9.831592201E0
1.002625208E0,4.825964355E-1,1.146615601E-1,9.880503387E0,9.892946668E0
1.012656208E0,4.885839844E-1,1.210981750E-1,9.847721558E0,9.860578023E0
1.022687208E0,4.796026611E-1,1.181044006E-1,9.812544708E0,9.824968245E0
1.032719208E0,4.523593140E-1,1.225950623E-1,9.849218445E0,9.860363202E0
1.042750208E0,4.737648010E-1,1.002914429E-1,9.871072998E0,9.882944581E0
1.052782208E0,5.122348022E-1,1.074765015E-1,9.913584595E0,9.927391158E0
1.062813208E0,5.412744141E-1,1.185534668E-1,9.899064789E0,9.914560838E0
1.072845208E0,5.195695496E-1,9.340576172E-2,9.859247589E0,9.873370254E0
1.082876208E0,4.905299377E-1,1.026864624E-1,9.822424164E0,9.835201095E0
1.092908208E0,4.595443726E-1,1.013392639E-1,9.800719299E0,9.812010470E0
1.102939208E0,4.593946838E-1,9.205856323E-2,9.758357391E0,9.769598622E0
1.112971208E0,4.489164734E-1,9.325607300E-2,9.787846069E0,9.798579151E0
1.123002208E0,4.620890808E-1,7.858657837E-2,9.830806732E0,9.841974557E0
1.133033208E0,5.028044128E-1,1.023870850E-1,9.899813232E0,9.913102311E0
1.143065208E0,5.080435181E-1,1.402583313E-1,9.901908875E0,9.915925573E0
1.153096208E0,5.123844910E-1,1.579216003E-1,9.876761169E0,9.891303670E0
1.163128208E0,4.929249573E-1,1.860630798E-1,9.844877472E0,9.858965814E0
1.173159208E0,4.754113770E-1,1.815724182E-1,9.816137238E0,9.829320159E0
1.183191208E0,4.593946838E-1,1.643582153E-1,9.845476227E0,9.857558482E0
1.193222208E0,4.881349182E-1,1.642085266E-1,9.901010742E0,9.914396293E0
1.203254208E0,5.071453857E-1,1.486408997E-1,9.967622223E0,9.981622280E0
1.213285208E0,5.328918457E-1,1.166075134E-1,9.992320862E0,1.000719977E1
1.223317208E0,5.330415344E-1,1.005908203E-1,9.974208527E0,9.988948269E0
1.233348208E0,5.219645691E-1,1.230441284E-1,9.893077240E0,9.907601332E0
1.243379208E0,5.075944519E-1,1.146615601E-1,9.840087433E0,9.853837835E0
1.253411208E0,4.899311829E-1,1.213975525E-1,9.814490662E0,9.827461365E0
1.263442208E0,5.078938293E-1,1.249900818E-1,9.812844086E0,9.826774024E0
1.273474208E0,5.300477600E-1,1.481918335E-1,9.845476227E0,9.860847508E0
1.283505208E0,5.457650757E-1,1.426533508E-1,9.862241364E0,9.878360907E0
1.293537208E0,5.605842590E-1,1.411564636E-1,9.874216461E0,9.891123828E0
1.303568208E0,5.659730530E-1,1.478924561E-1,9.854307861E0,9.871655439E0
1.313600208E0,5.649252319E-1,1.309776306E-1,9.865684204E0,9.882713214E0
1.323631208E0,5.777984619E-1,1.354682922E-1,9.868228912E0,9.886058091E0
1.333663208E0,5.680686951E-1,1.407073975E-1,9.871821442E0,9.889153613E0
1.343694208E0,5.486091614E-1,1.386117554E-1,9.855205994E0,9.871437099E0
1.353725208E0,5.438191223E-1,1.610650635E-1,9.766739960E0,9.783194296E0
1.363757208E0,5.165757751E-1,1.898052979E-1,9.781708832E0,9.797178382E0
1.373788208E0,4.980143738E-1,2.044747925E-1,9.846673737E0,9.861379819E0
1.383820208E0,5.168751526E-1,2.089654541E-1,9.795629883E0,9.811482624E0
1.393851208E0,5.135820007E-1,1.989363098E-1,9.773176575E0,9.788683389E0
1.403883208E0,5.231620789E-1,1.787283325E-1,9.796528015E0,9.812115140E0
1.413914208E0,5.438191223E-1,1.752854919E-1,9.894574127E0,9.911057532E0
1.423946208E0,6.041436768E-1,1.724414062E-1,9.928703156E0,9.948561302E0
1.433977208E0,5.830375671E-1,1.669029236E-1,9.902956696E0,9.921508993E0
1.444008208E0,5.607339478E-1,1.496887207E-1,9.885592804E0,9.902614521E0
1.454040208E0,5.670208740E-1,1.516346741E-1,9.860295410E0,9.877749304E0
1.464071208E0,5.605842590E-1,1.633103943E-1,9.816735992E0,9.834085140E0
1.474103208E0,5.435197449E-1,1.811233521E-1,9.781259766E0,9.798023371E0
1.484134208E0,5.204676819E-1,1.929487610E-1,9.778116302E0,9.793859007E0
1.494166208E0,5.276527405E-1,2.007325745E-1,9.829309845E0,9.845508774E0
1.504197208E0,5.539979553E-1,1.797761536E-1,9.890083466E0,9.907218790E0
1.514229208E0,5.819897461E-1,1.561253357E-1,9.896819458E0,9.915146119E0
1.524260208E0,5.725593567E-1,1.525328064E-1,9.901160431E0,9.918874349E0
1.534292208E0,5.721102905E-1,1.445993042E-1,9.902807007E0,9.920373267E0
1.544323208E0,5.554948425E-1,1.431024170E-1,9.871372375E0,9.888025354E0
1.554354208E0,5.430706787E-1,1.315763855E-1,9.852810974E0,9.868643382E0
1.564386208E0,5.287005615E-1,1.182540894E-1,9.832303619E0,9.847218022E0
1.574417833E0,5.129832458E-1,1.389111328E-1,9.802964630E0,9.817360320E0
1.584449833E0,5.113366699E-1,1.363664246E-1,9.803114319E0,9.817388214E0
1.594480833E0,5.316943359E-1,1.607656860E-1,9.829908600E0,9.845590259E0
1.604512833E0,5.746549988E-1,1.582209778E-1,9.835746460E0,9.853789660E0
1.614543833E0,5.932164001E-1,1.598675537E-1,9.816436615E0,9.835643911E0
1.624575833E0,5.971083069E-1,1.683998108E-1,9.819430389E0,9.839009605E0
1.634606833E0,5.909710693E-1,1.508862305E-1,9.838590546E0,9.857478247E0
1.644638833E0,5.803431702E-1,1.657054138E-1,9.864337006E0,9.882783061E0
1.654669833E0,6.002517700E-1,1.577719116E-1,9.871072998E0,9.890565014E0
1.664700833E0,5.861810303E-1,1.733395386E-1,9.852511597E0,9.871455797E0
1.674732833E0,5.662724304E-1,1.923500061E-1,9.837393036E0,9.855555019E0
1.684763833E0,5.592370605E-1,1.754351807E-1,9.812844086E0,9.830332275E0
1.694795833E0,5.533992004E-1,1.731898499E-1,9.809251556E0,9.826375807E0
1.704826833E0,5.439688110E-1,1.736389160E-1,9.832004242E0,9.848571468E0
1.714858833E0,5.472619629E-1,1.689985657E-1,9.873468018E0,9.890067081E0
1.724889833E0,5.577401733E-1,1.710942078E-1,9.878258057E0,9.895470154E0
1.734921833E0,5.586383057E-1,1.706451416E-1,9.878856812E0,9.896110773E0
1.744952833E0,5.667214966E-1,1.666035461E-1,9.864486694E0,9.882157039E0
1.754984833E0,5.556445312E-1,1.607656860E-1,9.812095642E0,9.829130549E0
1.765015833E0,5.542973328E-1,1.603166199E-1,9.827214203E0,9.844139675E0
1.775046833E0,5.695655823E-1,1.408570862E-1,9.889484711E0,9.906874054E0
1.785078833E0,5.849835205E-1,1.130149841E-1,9.915081482E0,9.932966269E0
1.795109833E0,5.827381897E-1,1.257385254E-1,9.812844086E0,9.830936020E0
1.805141833E0,5.511538696E-1,1.206491089E-1,9.810299377E0,9.826510096E0
1.815172833E0,5.466632080E-1,1.282832336E-1,9.861043854E0,9.877017927E0
1.825204833E0,5.849835205E-1,1.121168518E-1,9.852810974E0,9.870798347E0
1.835235833E0,6.129753113E-1,1.167572021E-1,9.846524048E0,9.866276238E0
1.845267833E0,5.915698242E-1,1.209484863E-1,9.844428406E0,9.862928268E0
1.855298833E0,5.763015747E-1,1.194515991E-1,9.790390778E0,9.808065241E0
1.865330833E0,5.739065552E-1,1.463955688E-1,9.806706848E0,9.824576306E0
1.875361833E0,5.721102905E-1,1.417552185E-1,9.842781830E0,9.860413727E0
1.885392833E0,5.650749207E-1,1.489402771E-1,9.835596771E0,9.852941526E0
1.895424833E0,5.788462830E-1,1.401086426E-1,9.819879456E0,9.837922848E0
1.905455833E0,5.800437927E-1,1.437011719E-1,9.837093658E0,9.855227672E0
1.915487833E0,5.879772949E-1,1.568737793E-1,9.851463776E0,9.870241395E0
1.925518833E0,5.782475281E-1,1.896556091E-1,9.834099884E0,9.852911244E0
1.935550833E0,5.691165161E-1,1.977388000E-1,9.803114319E0,9.821611100E0
1.945581833E0,5.508544922E-1,1.945953369E-1,9.812395020E0,9.829771311E0
1.955613833E0,5.444178772E-1,2.040257263E-1,9.814191284E0,9.831397046E0
1.965644833E0,5.522016907E-1,1.818717957E-1,9.851463776E0,9.868603882E0
1.975675833E0,5.734574890E-1,1.631607056E-1,9.907297668E0,9.925221509E0
1.985707833E0,5.878276062E-1,1.320254517E-1,9.936786346E0,9.955033647E0
1.995738833E0,5.800437927E-1,1.155596924E-1,9.932295685E0,9.949889568E0
2.005770833E0,5.742059326E-1,1.095721436E-1,9.904154205E0,9.921390479E0
2.015801833E0,5.643264771E-1,9.250762939E-2,9.859696655E0,9.876266510E0
2.025833833E0,5.652246094E-1,8.607101440E-2,9.827363892E0,9.843981315E0
2.035864833E0,5.510041809E-1,9.984237671E-2,9.821226654E0,9.837177801E0
2.045896833E0,5.704637146E-1,1.056802368E-1,9.843530273E0,9.860612831E0
2.055927833E0,5.700146484E-1,1.074765015E-1,9.848619690E0,9.865686884E0
2.065959833E0,5.864804077E-1,9.759704590E-2,9.829010468E0,9.846975740E0
2.075990833E0,5.906716919E-1,1.095721436E-1,9.839039612E0,9.857362709E0
2.086021833E0,5.980064392E-1,1.038839722E-1,9.864935760E0,9.883590498E0
2.096053833E0,6.038442993E-1,9.759704590E-2,9.883347473E0,9.902257843E0
2.106084833E0,6.348298645E-1,1.187031555E-1,9.873018951E0,9.894119598E0
2.116116833E0,6.394702148E-1,1.291813660E-1,9.893825684E0,9.915311222E0
2.126147833E0,6.369255066E-1,1.338217163E-1,9.892328796E0,9.913715316E0
2.136179833E0,6.191125488E-1,1.451980591E-1,9.796378326E0,9.816996034E0
2.146210833E0,5.905220032E-1,1.395098877E-1,9.840835876E0,9.859524836E0
2.156242833E0,5.813909912E-1,1.425036621E-1,9.936936035E0,9.954949550E0
2.166273833E0,5.876779175E-1,1.583706665E-1,9.814939728E0,9.833793188E0
2.176305833E0,5.468128967E-1,1.339714050E-1,9.759405212E0,9.775630045E0
2.186336833E0,5.649252319E-1,1.019380188E-1,9.871522064E0,9.888199014E0
2.196367833E0,6.268963623E-1,1.118174744E-1,9.914482727E0,9.934911673E0
2.206399833E0,6.342311096E-1,1.169068909E-1,9.867630157E0,9.888682483E0
2.216430833E0,5.891748047E-1,1.020877075E-1,9.826465759E0,9.844642105E0
2.226462833E0,5.870791626E-1,9.954299927E-2,9.804611206E0,9.822676400E0
2.236493833E0,5.987548828E-1,1.098715210E-1,9.804461517E0,9.823341835E0
2.246525833E0,5.939648438E-1,1.230441284E-1,9.817484436E0,9.836205302E0
2.256556833E0,6.150709534E-1,1.393601990E-1,9.847422180E0,9.867596320E0
2.266588833E0,6.351292419E-1,1.342707825E-1,9.865684204E0,9.887018894E0
2.276619833E0,6.415658569E-1,1.291813660E-1,9.870474243E0,9.892146196E0
2.286651833E0,6.439608765E-1,1.184037781E-1,9.891730042E0,9.913376230E0
2.296682833E0,6.192622375E-1,1.065783691E-1,9.859397278E0,9.879400759E0
2.306713833E0,6.325845337E-1,8.457412720E-2,9.864337006E0,9.884961332E0
2.316745833E0,6.363267517E-1,8.786727905E-2,9.871222687E0,9.892101381E0
2.326776833E0,6.274951172E-1,7.439529419E-2,9.870174866E0,9.890381017E0
2.336808833E0,6.248007202E-1,6.616241455E-2,9.854008484E0,9.874018260E0
2.346839833E0,6.075865173E-1,7.244934082E-2,9.830507355E0,9.849532229E0
2.356871833E0,5.882766724E-1,7.858657837E-2,9.826615448E0,9.844522155E0
2.366902833E0,5.770500183E-1,8.996292114E-2,9.811646576E0,9.829012594E0
2.376934833E0,5.920188904E-1,9.325607300E-2,9.843530273E0,9.861758023E0
2.386965833E0,6.147715759E-1,8.681945801E-2,9.842332764E0,9.861896164E0
2.396996833E0,6.366261292E-1,7.439529419E-2,9.840536499E0,9.861388648E0
2.407028833E0,6.400689697E-1,7.963439941E-2,9.830357666E0,9.851495408E0
2.417059833E0,6.207591248E-1,9.310638428E-2,9.793833618E0,9.813928247E0
2.427091833E0,6.120771790E-1,7.454498291E-2,9.785451050E0,9.804858371E0
2.437122833E0,6.108796692E-1,7.828720093E-2,9.807305603E0,9.826624347E0
2.447154833E0,6.050418091E-1,9.160949707E-2,9.851314087E0,9.870301775E0
2.457185833E0,6.189628601E-1,8.607101440E-2,9.884844360E0,9.904578298E0
2.467217833E0,6.183641052E-1,8.681945801E-2,9.873018951E0,9.892745574E0
2.477248833E0,6.111790466E-1,1.022373962E-1,9.878108368E0,9.897525814E0
2.487280833E0,5.912704468E-1,8.307723999E-2,9.840835876E0,9.858932666E0
2.497311833E0,5.837860107E-1,7.694000244E-2,9.790989532E0,9.808679926E0
2.507342833E0,5.593867493E-1,8.352630615E-2,9.821376343E0,9.837648268E0
2.517374833E0,5.658233643E-1,8.217910767E-2,9.804162140E0,9.820819963E0
2.527405833E0,5.556445312E-1,8.247848511E-2,9.803114319E0,9.819195175E0
2.537437833E0,5.706134033E-1,8.831634521E-2,9.807455292E0,9.824437833E0
2.547468833E0,5.721102905E-1,8.981323242E-2,9.825717316E0,9.842768786E0
2.557500833E0,6.126759338E-1,8.726852417E-2,9.868977356E0,9.888361929E0
2.567531833E0,6.472540283E-1,7.694000244E-2,9.911339264E0,9.932749043E0
2.577563667E0,6.740483093E-1,8.711883545E-2,9.913285217E0,9.936556477E0
2.587594667E0,6.596781921E-1,8.053253174E-2,9.826316071E0,9.848763797E0
2.597625667E0,6.414161682E-1,7.828720093E-2,9.840087433E0,9.861281067E0
2.607657667E0,6.707551575E-1,5.763015747E-2,9.881102142E0,9.904009959E0
2.617688667E0,7.035369873E-1,4.805007935E-2,9.912237396E0,9.937289535E0
2.627720667E0,6.968009949E-1,7.140151978E-2,9.890532532E0,9.915304512E0
2.637751667E0,6.541397095E-1,6.915618896E-2,9.830507355E0,9.852489847E0
2.647783667E0,6.095324707E-1,5.972579956E-2,9.748178558E0,9.767398948E0
2.657814667E0,5.918692017E-1,5.912704468E-2,9.754166107E0,9.772285383E0
2.667846667E0,5.855822754E-1,6.436614990E-2,9.791588287E0,9.809294103E0
2.677877667E0,5.822891235E-1,5.852828979E-2,9.820328522E0,9.837750681E0
2.687909667E0,5.848338318E-1,4.894821167E-2,9.836494904E0,9.853986936E0
2.697940667E0,5.923182678E-1,6.735992432E-2,9.830058289E0,9.848117802E0
2.707971667E0,5.855822754E-1,8.951385498E-2,9.836494904E0,9.854316380E0
2.718003667E0,5.942642212E-1,9.894424438E-2,9.820927277E0,9.839387811E0
2.728034667E0,5.912704468E-1,1.248403931E-1,9.798324280E0,9.816941711E0
2.738066667E0,5.897735596E-1,1.134640503E-1,9.804611206E0,9.822988743E0
2.748097667E0,6.030958557E-1,9.714797974E-2,9.819131012E0,9.838114462E0
2.758129667E0,5.911207581E-1,6.795867920E-2,9.847422180E0,9.865382189E0
2.768160667E0,6.233038330E-1,3.517684937E-2,9.893675995E0,9.913353104E0
2.778192667E0,6.427633667E-1,2.694396973E-3,9.969867554E0,9.990566102E0
2.788223667E0,6.788383484E-1,-1.197509766E-2,9.981692963E0,1.000475683E1
2.798254667E0,6.761439514E-1,-1.631607056E-2,9.953102417E0,9.976055562E0
2.808286667E0,6.535409546E-1,2.395019531E-3,9.901759186E0,9.923303708E0
2.818317667E0,6.225553894E-1,7.634124756E-3,9.806108093E0,9.825853115E0
2.828349667E0,5.990542603E-1,-0.000000000E0,9.748028870E0,9.766418630E0
2.838380667E0,6.069877625E-1,2.065704346E-2,9.758058014E0,9.776940066E0
2.848412667E0,6.463558960E-1,1.377136230E-2,9.810299377E0,9.831578687E0
2.858443667E0,6.620732117E-1,2.395019531E-2,9.860145721E0,9.882377659E0
2.868475667E0,6.638694763E-1,3.861968994E-2,9.900861053E0,9.923168031E0
2.878506667E0,6.550378418E-1,6.496490479E-2,9.878407745E0,9.900314874E0
2.888537667E0,6.253994751E-1,6.556365967E-2,9.827064514E0,9.847163046E0
2.898569667E0,5.858816528E-1,7.813751221E-2,9.804760895E0,9.822560714E0
2.908600667E0,5.791456604E-1,7.679031372E-2,9.815388794E0,9.832759716E0
2.918632667E0,5.881269836E-1,8.966354370E-2,9.839039612E0,9.857009353E0
2.928663667E0,6.017486572E-1,9.774673462E-2,9.798174591E0,9.817121838E0
2.938695667E0,5.867797852E-1,1.222956848E-1,9.876012726E0,9.894184863E0
2.948726667E0,6.092330933E-1,1.212478638E-1,9.932145996E0,9.951552145E0
2.958758667E0,6.277944946E-1,1.157093811E-1,9.776918793E0,9.797737273E0
2.968789667E0,6.228547668E-1,6.900650024E-2,9.811047821E0,9.831041110E0
2.978821667E0,6.412664795E-1,1.916015625E-2,9.891430664E0,9.912214202E0
2.988852667E0,6.715036011E-1,2.110610962E-2,9.858798523E0,9.881663366E0
2.998883667E0,6.433621216E-1,1.616638184E-2,9.875264282E0,9.896212448E0
3.008915667E0,6.198609924E-1,-3.742218018E-3,9.856702881E0,9.876175036E0
3.018946667E0,6.090834045E-1,3.143463135E-3,9.806108093E0,9.825006280E0
3.028978667E0,5.954617310E-1,2.948867798E-2,9.813592529E0,9.831685643E0
3.039009667E0,6.036946106E-1,6.107299805E-2,9.823771362E0,9.842492615E0
3.049041667E0,6.168672180E-1,8.652008057E-2,9.844428406E0,9.864115851E0
3.059072667E0,6.248007202E-1,9.565109253E-2,9.898915100E0,9.919074817E0
3.069104667E0,6.465055847E-1,7.813751221E-2,9.889484711E0,9.910902219E0
3.079135667E0,6.454577637E-1,8.876541138E-2,9.864935760E0,9.886427696E0
3.089166667E0,6.330335999E-1,5.942642212E-2,9.871522064E0,9.891977098E0
3.099198667E0,6.400689697E-1,4.954696655E-2,9.867181091E0,9.888043582E0
3.109229667E0,6.427633667E-1,4.475692749E-2,9.879754944E0,9.900742683E0
3.119261667E0,6.087840271E-1,5.119354248E-2,9.855505371E0,9.874422762E0
3.129292667E0,5.770500183E-1,5.403762817E-2,9.799072723E0,9.816197483E0
3.139324667E0,5.628295898E-1,5.628295898E-2,9.793983307E0,9.810303458E0
3.149355667E0,5.712121582E-1,6.062393188E-2,9.790690155E0,9.807526309E0
3.159387667E0,5.915698242E-1,7.155120850E-2,9.830956421E0,9.848998862E0
3.169418667E0,6.081852722E-1,8.038284302E-2,9.861941986E0,9.881004527E0
3.179450667E0,6.158193970E-1,8.831634521E-2,9.847721558E0,9.867352896E0
3.189481667E0,6.270460510E-1,1.017883301E-1,9.836494904E0,9.856986335E0
3.199512667E0,6.215075684E-1,1.047821045E-1,9.833800507E0,9.853978047E0
3.209544667E0,6.200106812E-1,9.190887451E-2,9.831854553E0,9.851813257E0
3.219575667E0,5.998027039E-1,7.933502197E-2,9.826316071E0,9.844924827E0
3.229607667E0,5.825885010E-1,8.262817383E-2,9.849517822E0,9.867078499E0
3.239638667E0,5.906716919E-1,7.514373779E-2,9.835147705E0,9.853155333E0
3.249670667E0,5.851332092E-1,5.553451538E-2,9.858349457E0,9.875855354E0
3.259701667E0,5.941145325E-1,6.137237549E-2,9.867929535E0,9.885988668E0
3.269732667E0,5.804928589E-1,5.688171387E-2,9.891430664E0,9.908612823E0
3.279764667E0,5.960604858E-1,6.002517700E-2,9.898316345E0,9.916428671E0
3.289795667E0,6.122268677E-1,8.008346558E-2,9.867929535E0,9.887227539E0
3.299827667E0,6.126759338E-1,8.367599487E-2,9.838889923E0,9.858302511E0
3.309858667E0,5.978567505E-1,7.993377686E-2,9.839039612E0,9.857510973E0
3.319890667E0,6.032455444E-1,7.364685059E-2,9.828112335E0,9.846883828E0
3.329921667E0,6.021977234E-1,7.259902954E-2,9.818083191E0,9.836801831E0
3.339953667E0,6.141728210E-1,7.349716187E-2,9.864187317E0,9.883562187E0
3.349984667E0,6.300398254E-1,5.508544922E-2,9.911938019E0,9.932094436E0
3.360016667E0,6.210585022E-1,6.750961304E-2,9.895921326E0,9.915620510E0
3.370047667E0,5.760021973E-1,8.547225952E-2,9.810598755E0,9.827865077E0
3.380078667E0,5.578898621E-1,9.804611206E-2,9.786349182E0,9.802728419E0
3.390110667E0,5.632786560E-1,9.939331055E-2,9.790540466E0,9.807234294E0
3.400141667E0,5.815406799E-1,1.082249451E-1,9.837393036E0,9.855161285E0
3.410173667E0,5.987548828E-1,1.251397705E-1,9.868827667E0,9.887766527E0
3.420204667E0,5.972579956E-1,1.166075134E-1,9.830207977E0,9.849025500E0
3.430236667E0,5.641767883E-1,1.278341675E-1,9.853709106E0,9.870674758E0
3.440267667E0,5.568420410E-1,1.124162292E-1,9.872569885E0,9.888900172E0
3.450299667E0,5.757028198E-1,8.936416626E-2,9.869576111E0,9.886756409E0
3.460330667E0,5.804928589E-1,7.589218140E-2,9.932445374E0,9.949683547E0
3.470361667E0,5.586383057E-1,9.145980835E-2,9.898915100E0,9.915087585E0
3.480393667E0,5.578898621E-1,9.879455566E-2,9.818681946E0,9.835014825E0
3.490424667E0,5.514532471E-1,9.145980835E-2,9.744136963E0,9.760157311E0
3.500456667E0,5.324427795E-1,9.400451660E-2,9.781259766E0,9.796191850E0
3.510487667E0,5.623805237E-1,1.007405090E-1,9.795929260E0,9.812576144E0
3.520519667E0,5.816903687E-1,8.981323242E-2,9.820927277E0,9.838548809E0
3.530550667E0,5.968089294E-1,9.789642334E-2,9.848619690E0,9.867171550E0
3.540582667E0,5.824388123E-1,1.167572021E-1,9.848619690E0,9.866517978E0
3.550613667E0,5.713618469E-1,1.469943237E-1,9.842781830E0,9.860447041E0
3.560644667E0,5.676196289E-1,1.844165039E-1,9.820178833E0,9.838298318E0
3.570676833E0,5.423222351E-1,2.001338196E-1,9.797575836E0,9.814614573E0
3.580707833E0,5.442681885E-1,1.932481384E-1,9.797725525E0,9.814733729E0
3.590739833E0,5.354365540E-1,1.847158813E-1,9.833052063E0,9.849351508E0
3.600770833E0,5.233117676E-1,1.736389160E-1,9.864486694E0,9.879883776E0
3.610802833E0,5.507048035E-1,1.285826111E-1,9.930349731E0,9.946439316E0
3.620833833E0,5.739065552E-1,1.008901978E-1,9.962383118E0,9.979410050E0
3.630865833E0,5.749543762E-1,9.669891357E-2,9.973909149E0,9.990935238E0
3.640896833E0,5.574407959E-1,8.502319336E-2,9.922715607E0,9.938724978E0
3.650927833E0,5.602848816E-1,1.067280579E-1,9.867031403E0,9.883502351E0
3.660959833E0,5.451663208E-1,1.125659180E-1,9.816885681E0,9.832655891E0
3.670990833E0,5.433700562E-1,1.213975525E-1,9.789193268E0,9.805013678E0
3.681022833E0,5.444178772E-1,1.103205872E-1,9.780062256E0,9.795824579E0
3.691053833E0,5.465135193E-1,1.245410156E-1,9.783355408E0,9.799399498E0
3.701085833E0,5.480104065E-1,1.308279419E-1,9.795330505E0,9.811520324E0
3.711116833E0,5.709127808E-1,1.372645569E-1,9.845625916E0,9.863119822E0
3.721148833E0,5.890251160E-1,1.579216003E-1,9.872120819E0,9.890938241E0
3.731179833E0,5.764512634E-1,1.770817566E-1,9.883646851E0,9.902026514E0
3.741210833E0,5.812413025E-1,1.731898499E-1,9.893526306E0,9.912098615E0
3.751242833E0,5.664221191E-1,1.893562317E-1,9.883347473E0,9.901376019E0
3.761273833E0,5.418731689E-1,1.983375549E-1,9.831704865E0,9.848623501E0
3.771305833E0,5.201683044E-1,2.163002014E-1,9.771679688E0,9.787905024E0
3.781336833E0,5.281018066E-1,2.224374390E-1,9.883347473E0,9.899945818E0
3.791368833E0,5.282514954E-1,2.064207458E-1,9.860894165E0,9.877190537E0
3.801399833E0,5.387297058E-1,1.939965820E-1,9.780810699E0,9.797556956E0
3.811431833E0,5.385800171E-1,1.658551025E-1,9.898615723E0,9.914644198E0
3.821462833E0,5.816903687E-1,1.453477478E-1,9.945468292E0,9.963524939E0
3.831494833E0,6.015989685E-1,1.447489929E-1,9.890233154E0,9.909570396E0
3.841525833E0,5.478607178E-1,1.594184875E-1,9.853858795E0,9.870364673E0
3.851556833E0,5.203179932E-1,1.487905884E-1,9.790839844E0,9.805784737E0
3.861588833E0,5.352868652E-1,1.585203552E-1,9.770931244E0,9.786866613E0
3.871619833E0,5.391787720E-1,1.755848694E-1,9.772877197E0,9.789314200E0
3.881651833E0,5.457650757E-1,1.957928467E-1,9.810748444E0,9.827867489E0
3.891682833E0,5.279521179E-1,2.013313293E-1,9.849368134E0,9.865562344E0
3.901714833E0,5.391787720E-1,2.059716797E-1,9.881551208E0,9.898393424E0
3.911745833E0,5.548960876E-1,2.020797729E-1,9.897118835E0,9.914721738E0
3.921777833E0,5.586383057E-1,1.935475159E-1,9.902208252E0,9.919842018E0
3.931808833E0,5.635780334E-1,1.779798889E-1,9.890532532E0,9.908174948E0
3.941839833E0,5.665718079E-1,1.766326904E-1,9.881850586E0,9.899655233E0
3.951871833E0,5.712121582E-1,1.860630798E-1,9.892628174E0,9.910852384E0
3.961902833E0,5.439688110E-1,1.808239746E-1,9.872869263E0,9.889496795E0
3.971934833E0,5.054988098E-1,1.736389160E-1,9.806706848E0,9.821261565E0
3.981965833E0,4.848417664E-1,1.951940918E-1,9.774523773E0,9.788487486E0
3.991997833E0,4.677772522E-1,1.799258423E-1,9.788594513E0,9.801416806E0
4.002028833E0,4.831951904E-1,1.977388000E-1,9.829609222E0,9.843464618E0
4.012060833E0,5.195695496E-1,1.953437805E-1,9.858199768E0,9.873814581E0
4.022091833E0,5.227130127E-1,1.904040527E-1,9.853559418E0,9.869251025E0
4.032122833E0,5.375321960E-1,2.026785278E-1,9.862540741E0,9.879257529E0
4.042154833E0,5.481600952E-1,2.007325745E-1,9.851164398E0,9.868445321E0
4.052185833E0,5.472619629E-1,1.998344421E-1,9.843979340E0,9.861204729E0
4.062217833E0,5.370831299E-1,2.086660767E-1,9.844727783E0,9.861575176E0
4.072248833E0,5.432203674E-1,2.049238586E-1,9.846823425E0,9.863924864E0
4.082280833E0,5.242098999E-1,2.113604736E-1,9.832004242E0,9.848237237E0
4.092311833E0,5.162763977E-1,2.040257263E-1,9.841284943E0,9.856929397E0
4.102343833E0,5.194198608E-1,2.233355713E-1,9.841883698E0,9.858110898E0
4.112374833E0,5.129832458E-1,2.082170105E-1,9.840985565E0,9.856546202E0
4.122405833E0,5.210664368E-1,2.234852600E-1,9.849966888E0,9.866271008E0
4.132437833E0,5.059478760E-1,2.225871277E-1,9.850415955E0,9.865912161E0
4.142468833E0,5.219645691E-1,2.215393066E-1,9.857601013E0,9.873896111E0
4.152500833E0,5.240602112E-1,2.201921082E-1,9.874964905E0,9.891312124E0
4.162531833E0,5.222639465E-1,2.198927307E-1,9.866582336E0,9.882841668E0
4.172563833E0,5.279521179E-1,2.056723022E-1,9.844428406E0,9.860720317E0
4.182594833E0,5.261558533E-1,2.074685669E-1,9.851314087E0,9.867536290E0
4.192626833E0,5.273533630E-1,1.989363098E-1,9.831255798E0,9.847399037E0
4.202657833E0,5.177732849E-1,2.179467773E-1,9.811047821E0,9.827118058E0
4.212688833E0,5.179229736E-1,2.107617188E-1,9.812245331E0,9.828164790E0
4.222720833E0,5.185217285E-1,2.140548706E-1,9.833351440E0,9.849339309E0
4.232751833E0,5.263055420E-1,2.154020691E-1,9.856104126E0,9.872496347E0
4.242783833E0,5.330415344E-1,2.188449097E-1,9.870623932E0,9.887428542E0
4.252814833E0,5.102888489E-1,2.001338196E-1,9.891730042E0,9.906905242E0
4.262846833E0,5.028044128E-1,2.070195007E-1,9.883497162E0,9.898443590E0
4.272877833E0,5.071453857E-1,2.188449097E-1,9.868977356E0,9.884422269E0
4.282909833E0,4.911286926E-1,2.191442871E-1,9.851014709E0,9.865684083E0
4.292940833E0,4.784051514E-1,2.230361938E-1,9.845326538E0,9.859466074E0
4.302971833E0,4.837939453E-1,2.315684509E-1,9.826765137E0,9.841391852E0
4.313003833E0,4.885839844E-1,2.332150269E-1,9.833650818E0,9.848542632E0
4.323034833E0,4.833448792E-1,2.338137817E-1,9.828711090E0,9.843365931E0
4.333066833E0,5.077441406E-1,2.275268555E-1,9.848919067E0,9.864622617E0
4.343097833E0,5.173242188E-1,2.335144043E-1,9.854008484E0,9.870341257E0
4.353129833E0,5.310955811E-1,2.353106689E-1,9.863438873E0,9.880529340E0
4.363160833E0,5.150788879E-1,2.366578674E-1,9.872719574E0,9.888978966E0
4.373192833E0,5.022056580E-1,2.600093079E-1,9.845476227E0,9.861704594E0
4.383223833E0,4.971162415E-1,2.543211365E-1,9.829010468E0,9.844859093E0
4.393254833E0,4.900808716E-1,2.571652222E-1,9.824968872E0,9.840545033E0
4.403286833E0,4.857398987E-1,2.603086853E-1,9.839788055E0,9.855208412E0
4.413317833E0,4.867877197E-1,2.586621094E-1,9.863438873E0,9.878830638E0
4.423349833E0,4.727169800E-1,2.474354553E-1,9.888586578E0,9.902970775E0
4.433380833E0,4.773573303E-1,2.513273621E-1,9.915081482E0,9.929747039E0
4.443412833E0,4.837939453E-1,2.329156494E-1,9.921218719E0,9.935737877E0
4.453443833E0,4.725672913E-1,2.442919922E-1,9.876910858E0,9.891226745E0
4.463475833E0,4.586462402E-1,2.442919922E-1,9.799970856E0,9.813738519E0
4.473506833E0,4.346960449E-1,2.585124207E-1,9.764794006E0,9.777882762E0
4.483537833E0,4.463717651E-1,2.544708252E-1,9.800419922E0,9.813879651E0
4.493569833E0,4.775070190E-1,2.469863892E-1,9.846823425E0,9.861488062E0
4.503600833E0,4.730163574E-1,2.564167786E-1,9.785750427E0,9.800530877E0
4.513632833E0,4.587959290E-1,2.507286072E-1,9.811646576E0,9.825567010E0
4.523663833E0,4.673281860E-1,2.371069336E-1,9.866582336E0,9.880488972E0
4.533695833E0,5.066963196E-1,2.209405518E-1,9.964478760E0,9.979799239E0
4.543726833E0,5.495072937E-1,2.404000854E-1,9.952952728E0,9.971008900E0
4.553758833E0,5.252577209E-1,2.543211365E-1,9.925410004E0,9.942551919E0
4.563789833E0,4.843927002E-1,2.447410583E-1,9.877359924E0,9.892258263E0
4.573821042E0,4.575984192E-1,2.472857666E-1,9.807754669E0,9.821537467E0
4.583853042E0,4.342469788E-1,2.556683350E-1,9.736652527E0,9.749684055E0
4.593884042E0,4.384382629E-1,2.543211365E-1,9.736502838E0,9.749686911E0
4.603916042E0,4.703219604E-1,2.674937439E-1,9.814490662E0,9.829393806E0
4.613947042E0,5.126838684E-1,2.918930054E-1,9.862540741E0,9.880169844E0
4.623979042E0,5.162763977E-1,3.080593872E-1,9.874964905E0,9.893248899E0
4.634010042E0,4.899311829E-1,3.348536682E-1,9.849667511E0,9.867528040E0
4.644042042E0,4.640350342E-1,3.495231628E-1,9.789941711E0,9.807163385E0
4.654073042E0,4.596940613E-1,3.529660034E-1,9.772278442E0,9.789449912E0
4.664104042E0,4.646337891E-1,3.465293884E-1,9.822573853E0,9.839660780E0
4.674136042E0,4.749623108E-1,3.234773254E-1,9.856253815E0,9.872991747E0
4.684167042E0,4.903802490E-1,2.999761963E-1,9.898615723E0,9.915293830E0
4.694199042E0,4.983137512E-1,2.802172852E-1,9.932445374E0,9.948884833E0
4.704230042E0,4.915777588E-1,2.409988403E-1,9.917177124E0,9.932277244E0
4.714262042E0,4.860392761E-1,2.383044434E-1,9.906998291E0,9.921775966E0
4.724293042E0,4.758604431E-1,2.293231201E-1,9.885143738E0,9.899247394E0
4.734325042E0,4.562512207E-1,2.240840149E-1,9.851613464E0,9.864718276E0
4.744356042E0,4.622387695E-1,2.317181396E-1,9.826166382E0,9.839761366E0
4.754387042E0,4.608915710E-1,2.287243652E-1,9.821975098E0,9.835442577E0
4.764419042E0,4.514611816E-1,2.321672058E-1,9.836195526E0,9.849287347E0
4.774450042E0,4.691244507E-1,2.498304749E-1,9.848020935E0,9.862353135E0
4.784482042E0,4.878355408E-1,2.686912537E-1,9.867031403E0,9.882736828E0
4.794513042E0,5.056484985E-1,2.812651062E-1,9.868977356E0,9.885924566E0
4.804545042E0,5.037025452E-1,2.880010986E-1,9.860894165E0,9.877949920E0
4.814576042E0,5.001100159E-1,3.056643677E-1,9.887538757E0,9.904895931E0
4.824608042E0,5.060975647E-1,3.230282593E-1,9.902807007E0,9.920991312E0
4.834639042E0,5.020559692E-1,3.288661194E-1,9.891730042E0,9.909921106E0
4.844670042E0,4.971162415E-1,3.493734741E-1,9.832303619E0,9.851059884E0
4.854702042E0,4.616400146E-1,3.668870544E-1,9.856852570E0,9.874475186E0
4.864733042E0,4.463717651E-1,3.754193115E-1,9.832902374E0,9.850185608E0
4.874765042E0,4.394860840E-1,3.601510620E-1,9.762997742E0,9.779518480E0
4.884796042E0,4.284091187E-1,3.507206726E-1,9.752818909E0,9.768521691E0
4.894828042E0,4.429289246E-1,3.338058472E-1,9.819280701E0,9.834931919E0
4.904859042E0,4.848417664E-1,3.297642517E-1,9.875114594E0,9.892507480E0
4.914891042E0,5.138813782E-1,3.107537842E-1,9.886041870E0,9.904265033E0
4.924922042E0,4.760101318E-1,2.737806702E-1,9.873468018E0,9.888726520E0
4.934953042E0,4.608915710E-1,2.636018372E-1,9.887089691E0,9.901335745E0
4.944985042E0,4.667294312E-1,2.716850281E-1,9.883048096E0,9.897792116E0
4.955016042E0,4.809498596E-1,2.683918762E-1,9.857601013E0,9.872975474E0
4.965048042E0,4.767585754E-1,3.116519165E-1,9.828711090E0,9.845201235E0
4.975079042E0,4.641847229E-1,3.165916443E-1,9.822124786E0,9.838182406E0
4.985111042E0,4.731660461E-1,3.260220337E-1,9.840985565E0,9.857746871E0
4.995142042E0,4.751119995E-1,3.135978699E-1,9.870623932E0,9.887026441E0
5.005174042E0,4.978646851E-1,3.239263916E-1,9.860894165E0,9.878766689E0
5.015205042E0,4.936734009E-1,3.336561584E-1,9.862840118E0,9.880822590E0
5.025236042E0,4.884342957E-1,3.219804382E-1,9.861492920E0,9.878829995E0
5.035268042E0,4.731660461E-1,3.320095825E-1,9.841734009E0,9.858693867E0
5.045299042E0,4.646337891E-1,3.312611389E-1,9.835147705E0,9.851687616E0
5.055331042E0,4.342469788E-1,3.279679871E-1,9.801168365E0,9.816263789E0
5.065362042E0,4.373904419E-1,3.367996216E-1,9.773326263E0,9.788904466E0
5.075394042E0,4.357438660E-1,3.385958862E-1,9.792636108E0,9.808172197E0
5.085425042E0,4.388873291E-1,3.435356140E-1,9.850565643E0,9.866320606E0
5.095457042E0,4.617897034E-1,3.585044861E-1,9.874964905E0,9.892254903E0
5.105488042E0,4.677772522E-1,3.405418396E-1,9.885892181E0,9.902810133E0
5.115519042E0,4.644841003E-1,3.359014893E-1,9.870773621E0,9.887403459E0
5.125551042E0,4.659809875E-1,3.212319946E-1,9.847422180E0,9.863673346E0
5.135582042E0,4.534071350E-1,3.276686096E-1,9.871372375E0,9.887210796E0
5.145614042E0,4.531077576E-1,3.444337463E-1,9.841883698E0,9.858327239E0
5.155645042E0,4.535568237E-1,3.418890381E-1,9.832004242E0,9.848396282E0
5.165677042E0,4.487667847E-1,3.468287659E-1,9.821975098E0,9.838337087E0
5.175708042E0,4.415817261E-1,3.433859253E-1,9.818981323E0,9.834902264E0
5.185740042E0,4.728666687E-1,3.350033569E-1,9.833201752E0,9.850263287E0
5.195771042E0,4.722679138E-1,3.489244080E-1,9.847422180E0,9.864913016E0
5.205802042E0,4.763095093E-1,3.420387268E-1,9.867929535E0,9.885337351E0
5.215834042E0,4.869374084E-1,3.553610229E-1,9.869276733E0,9.887669732E0
5.225865042E0,4.799020386E-1,3.342549133E-1,9.868528290E0,9.885842550E0
5.235897042E0,4.712200928E-1,3.430865479E-1,9.863438873E0,9.880646900E0
5.245928042E0,4.665797424E-1,3.594026184E-1,9.875563660E0,9.893109951E0
5.255960042E0,4.731660461E-1,3.600013733E-1,9.851314087E0,9.869238893E0
5.265991042E0,4.593946838E-1,3.614982605E-1,9.856104126E0,9.873424584E0
5.276023042E0,4.472698975E-1,3.579057312E-1,9.836943970E0,9.853609163E0
5.286054042E0,4.492158508E-1,3.631448364E-1,9.844877472E0,9.861809240E0
5.296085042E0,4.552033997E-1,3.670367432E-1,9.840237122E0,9.857595686E0
5.306117042E0,4.547543335E-1,3.695814514E-1,9.839488678E0,9.856922917E0
5.316148042E0,4.556524658E-1,3.739224243E-1,9.849667511E0,9.867288747E0
5.326180042E0,4.632865906E-1,3.647914124E-1,9.859996033E0,9.877612515E0
5.336211042E0,4.499642944E-1,3.668870544E-1,9.846673737E0,9.863775020E0
5.346243042E0,4.562512207E-1,3.719764709E-1,9.828711090E0,9.846323850E0
5.356274042E0,4.534071350E-1,3.686833191E-1,9.813742218E0,9.831126169E0
5.366306042E0,4.571493530E-1,3.626957703E-1,9.831704865E0,9.849007782E0
5.376337042E0,4.571493530E-1,3.619473267E-1,9.847571869E0,9.864819467E0
5.386368042E0,4.486170959E-1,3.766168213E-1,9.849218445E0,9.866620572E0
5.396400042E0,4.562512207E-1,3.740721130E-1,9.842931519E0,9.860598156E0
5.406431042E0,4.451742554E-1,3.674858093E-1,9.865085449E0,9.881960173E0
5.416463042E0,4.538562012E-1,3.671864319E-1,9.861043854E0,9.878309431E0
5.426494042E0,4.516108704E-1,3.751199341E-1,9.854756927E0,9.872228798E0
5.436526042E0,4.326004028E-1,3.603007507E-1,9.830507355E0,9.846615388E0
5.446557042E0,4.267625427E-1,3.719764709E-1,9.835896149E0,9.852174674E0
5.456589042E0,4.306544495E-1,3.662882996E-1,9.873617706E0,9.889790543E0
5.466620042E0,4.577481079E-1,3.710783386E-1,9.899813232E0,9.917335050E0
5.476651042E0,4.611909485E-1,3.963757324E-1,9.879006500E0,9.897705807E0
5.486683042E0,4.523593140E-1,3.888912964E-1,9.838141479E0,9.856210893E0
5.496714042E0,4.131408691E-1,4.102967834E-1,9.801916809E0,9.819195586E0
5.506746042E0,4.294569397E-1,3.935316467E-1,9.809251556E0,9.826531256E0
5.516777042E0,4.520599365E-1,3.791615295E-1,9.805659027E0,9.823394047E0
5.526809042E0,4.415817261E-1,3.927832031E-1,9.743538208E0,9.761445071E0
5.536840042E0,4.119433594E-1,3.906875610E-1,9.775870972E0,9.792343303E0
5.546872042E0,4.393363953E-1,3.794609070E-1,9.931098175E0,9.948050965E0
5.556903042E0,5.111869812E-1,3.701802063E-1,1.002091141E1,1.004076745E1
5.566934042E0,5.292993164E-1,3.728746033E-1,9.908495178E0,9.929625871E0
5.576965167E0,4.881349182E-1,3.781137085E-1,9.874366150E0,9.893652133E0
5.586996167E0,4.073030090E-1,3.887416077E-1,9.838889923E0,9.854987098E0
5.597028167E0,4.236190796E-1,3.761677551E-1,9.775421906E0,9.791824587E0
5.607059167E0,4.390370178E-1,3.809577942E-1,9.739945679E0,9.757275448E0
5.617091167E0,4.492158508E-1,3.781137085E-1,9.763446808E0,9.781086771E0
5.627122167E0,4.840933228E-1,3.817062378E-1,9.849517822E0,9.868791584E0
5.637154167E0,5.047503662E-1,3.897894287E-1,9.869875488E0,9.890457567E0
5.647185167E0,5.077441406E-1,4.053570557E-1,9.895322571E0,9.916628824E0
5.657216167E0,4.790039062E-1,4.098477173E-1,9.887389069E0,9.907465997E0
5.667248167E0,4.604425049E-1,4.159849548E-1,9.844278717E0,9.863816414E0
5.677279167E0,4.358935547E-1,4.194277954E-1,9.839788055E0,9.858364562E0
5.687311167E0,4.288581848E-1,4.276606750E-1,9.833800507E0,9.852433476E0
5.697342167E0,4.462220764E-1,4.442761230E-1,9.857451324E0,9.877542307E0
5.707374167E0,4.655319214E-1,4.433779907E-1,9.875863037E0,9.896765873E0
5.717405167E0,4.622387695E-1,4.513114929E-1,9.888287201E0,9.909367816E0
5.727437167E0,4.694238281E-1,4.337979126E-1,9.879006500E0,9.899662054E0
5.737468167E0,4.653822327E-1,4.183799744E-1,9.882599030E0,9.902392943E0
5.747499167E0,4.655319214E-1,4.049079895E-1,9.850266266E0,9.869570201E0
5.757531167E0,4.504133606E-1,4.020639038E-1,9.832303619E0,9.850823419E0
5.767562167E0,4.523593140E-1,3.990701294E-1,9.832004242E0,9.850492035E0
5.777594167E0,4.635859680E-1,3.832031250E-1,9.828860779E0,9.847246356E0
5.787625167E0,4.543052673E-1,3.847000122E-1,9.823022919E0,9.841044997E0
5.797657167E0,4.535568237E-1,3.773652649E-1,9.824968872E0,9.842668930E0
5.807688167E0,4.430786133E-1,3.851490784E-1,9.840985565E0,9.858481392E0
5.817720167E0,4.507127380E-1,3.953279114E-1,9.836794281E0,9.855046822E0
5.827751167E0,4.879852295E-1,3.987707520E-1,9.854756927E0,9.874886419E0
5.837782167E0,4.873864746E-1,4.080514526E-1,9.873767395E0,9.894207100E0
5.847814167E0,4.908293152E-1,4.140390015E-1,9.907147980E0,9.927936483E0
5.857845167E0,4.890330505E-1,4.327500916E-1,9.910590820E0,9.932081170E0
5.867877167E0,4.604425049E-1,4.466711426E-1,9.838889923E0,9.859780795E0
5.877908167E0,4.396357727E-1,4.490661621E-1,9.864486694E0,9.884484699E0
5.887940167E0,4.294569397E-1,4.707710266E-1,9.826615448E0,9.847254937E0
5.897971167E0,4.152365112E-1,4.779560852E-1,9.738448792E0,9.759008569E0
5.908003167E0,4.102967834E-1,4.583468628E-1,9.742939453E0,9.762340625E0
5.918034167E0,4.333488464E-1,4.342469788E-1,9.827663269E0,9.846792726E0
5.928065167E0,4.628375244E-1,4.415817261E-1,9.845326538E0,9.866086744E0
5.938097167E0,4.977149963E-1,4.318519592E-1,9.871372375E0,9.893341645E0
5.948128167E0,4.908293152E-1,4.183799744E-1,9.881251831E0,9.902277161E0
5.958160167E0,4.683760071E-1,3.888912964E-1,9.894723816E0,9.913433912E0
5.968191167E0,4.784051514E-1,3.842509460E-1,9.859546967E0,9.878622711E0
5.978223167E0,4.834945679E-1,3.890409851E-1,9.840237122E0,9.859786331E0
5.988254167E0,4.757107544E-1,4.138893127E-1,9.850266266E0,9.870428086E0
5.998285167E0,4.688250732E-1,4.245172119E-1,9.864636383E0,9.884890631E0
6.008317167E0,4.704716492E-1,4.442761230E-1,9.893526306E0,9.914665280E0
6.018348167E0,4.724176025E-1,4.510121155E-1,9.862091675E0,9.883695793E0
6.028380167E0,4.658312988E-1,4.384382629E-1,9.828112335E0,9.848909533E0
6.038411167E0,4.610412598E-1,4.390370178E-1,9.843530273E0,9.864096552E0
6.048443167E0,4.507127380E-1,4.349954224E-1,9.862690430E0,9.882561687E0
6.058474167E0,4.580474854E-1,4.334985352E-1,9.859846344E0,9.879994859E0
6.068506167E0,4.634362793E-1,4.468208313E-1,9.846823425E0,9.867844426E0
6.078537167E0,4.439767456E-1,4.450245667E-1,9.798024902E0,9.818169595E0
6.088569167E0,4.317022705E-1,4.284091187E-1,9.785900116E0,9.804781604E0
6.098600167E0,4.270619202E-1,4.399351501E-1,9.789642334E0,9.808823673E0
6.108631167E0,4.456233215E-1,4.342469788E-1,9.807455292E0,9.827173036E0
6.118663167E0,4.613406372E-1,4.379891968E-1,9.862391052E0,9.882885560E0
6.128694167E0,4.703219604E-1,4.478686523E-1,9.863588562E0,9.884946555E0
6.138726167E0,4.784051514E-1,4.415817261E-1,9.871821442E0,9.893266624E0
6.148757167E0,4.564009094E-1,4.505630493E-1,9.848619690E0,9.869479148E0
6.158789167E0,4.396357727E-1,4.420307922E-1,9.841284943E0,9.861012126E0
6.168820167E0,4.388873291E-1,4.308041382E-1,9.818532257E0,9.837773629E0
6.178851167E0,4.340972900E-1,4.330494690E-1,9.818681946E0,9.837809078E0
6.188883167E0,4.105961609E-1,4.457730103E-1,9.814041595E0,9.832736914E0
6.198914167E0,4.123924255E-1,4.547543335E-1,9.826316071E0,9.845473911E0
6.208946167E0,4.132905579E-1,4.423301697E-1,9.832153931E0,9.850772355E0
6.218977167E0,4.417314148E-1,4.317022705E-1,9.844129028E0,9.863486697E0
6.229009167E0,4.429289246E-1,4.363426208E-1,9.848619690E0,9.868226320E0
6.239040167E0,4.481680298E-1,4.315525818E-1,9.852511597E0,9.872136394E0
6.249072167E0,4.680766296E-1,4.227209473E-1,9.845176849E0,9.865358378E0
6.259103167E0,4.641847229E-1,4.090992737E-1,9.837991791E0,9.857429287E0
6.269134167E0,4.617897034E-1,4.147874451E-1,9.829459534E0,9.849039196E0
6.279166167E0,4.516108704E-1,4.192781067E-1,9.864187317E0,9.883417321E0
6.289197167E0,4.584965515E-1,4.203259277E-1,9.861642609E0,9.881239189E0
6.299229167E0,4.578977966E-1,4.275109863E-1,9.858798523E0,9.878681306E0
6.309260167E0,4.559518433E-1,4.219725037E-1,9.849517822E0,9.869090850E0
6.319292167E0,4.438270569E-1,4.417314148E-1,9.857301636E0,9.877170882E0
6.329323167E0,4.486170959E-1,4.403842163E-1,9.856403503E0,9.876430812E0
6.339355167E0,4.394860840E-1,4.366419983E-1,9.866133270E0,9.885564726E0
6.349386167E0,4.266128540E-1,4.433779907E-1,9.862241364E0,9.881416259E0
6.359417167E0,4.311035156E-1,4.517605591E-1,9.850865021E0,9.870637239E0
6.369449167E0,4.246669006E-1,4.528083801E-1,9.841883698E0,9.861442700E0
6.379480167E0,4.198768616E-1,4.525090027E-1,9.836345215E0,9.855696229E0
6.389512167E0,4.134402466E-1,4.472698975E-1,9.816586304E0,9.835463886E0
6.399543167E0,4.005670166E-1,4.334985352E-1,9.801916809E0,9.819671484E0
6.409575167E0,4.076023865E-1,4.251159668E-1,9.845625916E0,9.863225282E0
6.419606167E0,4.255650330E-1,4.195774841E-1,9.911039886E0,9.929041368E0
6.429638167E0,4.315525818E-1,4.129911804E-1,9.876761169E0,9.894807251E0
6.439669167E0,4.242178345E-1,4.291575623E-1,9.782606964E0,9.801200743E0
6.449701167E0,3.999682617E-1,4.308041382E-1,9.745783539E0,9.763496484E0
6.459732167E0,3.812571716E-1,4.167333984E-1,9.766290894E0,9.782610162E0
6.469763167E0,3.791615295E-1,4.282594299E-1,9.786049805E0,9.802751674E0
6.479795167E0,4.152365112E-1,4.014651489E-1,9.742640076E0,9.759745451E0
6.489826167E0,4.180805969E-1,4.212240601E-1,9.709858246E0,9.727978631E0
6.499858167E0,3.911366272E-1,4.053570557E-1,9.854756927E0,9.870842735E0
6.509889167E0,4.237687683E-1,3.933819580E-1,9.973460083E0,9.990206973E0
6.519921167E0,4.875361633E-1,3.870950317E-1,1.004965164E1,1.006891415E1
6.529952167E0,4.839436340E-1,3.815565491E-1,9.945767670E0,9.964842266E0
6.539983167E0,4.092489624E-1,3.905378723E-1,9.899962921E0,9.916111656E0
6.550015167E0,3.701802063E-1,3.658392334E-1,9.808802490E0,9.822600370E0
6.560046167E0,3.559597778E-1,3.574566650E-1,9.728868713E0,9.741938671E0
6.570078167E0,3.736230469E-1,3.408412170E-1,9.715247040E0,9.728401305E0
6.580109333E0,4.014651489E-1,3.445834351E-1,9.792636108E0,9.806917659E0
6.590141333E0,4.477189636E-1,3.552113342E-1,9.891131287E0,9.907628651E0
6.600172333E0,4.971162415E-1,3.611988831E-1,9.984087982E0,1.000297966E1
6.610204333E0,5.025050354E-1,3.817062378E-1,9.996212769E0,1.001611106E1
6.620235333E0,4.758604431E-1,3.950285339E-1,9.919422455E0,9.938683642E0
6.630266333E0,4.349954224E-1,3.920347595E-1,9.845326538E0,9.862726140E0
6.640298333E0,4.156855774E-1,3.957769775E-1,9.802365875E0,9.819155293E0
6.650329333E0,4.028123474E-1,4.279600525E-1,9.760303345E0,9.777981846E0
6.660361333E0,3.903881836E-1,4.245172119E-1,9.761650543E0,9.778672667E0
6.670392333E0,3.830534363E-1,4.312532043E-1,9.789941711E0,9.806919393E0
6.680424333E0,4.058061218E-1,4.349954224E-1,9.832602997E0,9.850582791E0
6.690455333E0,4.147874451E-1,4.234693909E-1,9.849068756E0,9.866890610E0
6.700487333E0,4.087998962E-1,3.990701294E-1,9.881102142E0,9.897603441E0
6.710518333E0,3.996688843E-1,3.622467041E-1,9.864786072E0,9.879522364E0
6.720549333E0,4.013154602E-1,3.365002441E-1,9.842931519E0,9.856854843E0
6.730581333E0,3.927832031E-1,3.150947571E-1,9.842332764E0,9.855205608E0
6.740612333E0,3.930825806E-1,2.851570129E-1,9.852062531E0,9.864023750E0
6.750644333E0,4.038601685E-1,2.742297363E-1,9.874366150E0,9.886425636E0
6.760675333E0,4.079017639E-1,2.568658447E-1,9.925559692E0,9.937258129E0
6.770707333E0,4.233197021E-1,2.694396973E-1,9.939780121E0,9.952438202E0
6.780738333E0,4.294569397E-1,2.815644836E-1,9.932145996E0,9.945412807E0
6.790770333E0,4.171824646E-1,2.968327332E-1,9.886191559E0,9.899441116E0
6.800801333E0,4.141886902E-1,3.164419556E-1,9.863738251E0,9.877500699E0
6.810832333E0,4.052073669E-1,3.321592712E-1,9.855954437E0,9.869871360E0
6.820864333E0,4.221221924E-1,3.463796997E-1,9.847272491E0,9.862400396E0
6.830895333E0,4.221221924E-1,3.556604004E-1,9.801916809E0,9.817446440E0
6.840927333E0,4.031117249E-1,3.634442139E-1,9.803264008E0,9.818277647E0
6.850958333E0,3.918850708E-1,3.824546814E-1,9.776320038E0,9.791643323E0
6.860990333E0,3.712280273E-1,3.742218018E-1,9.779463501E0,9.793659100E0
6.871021333E0,3.607498169E-1,3.650907898E-1,9.842033386E0,9.855407292E0
6.881053333E0,3.893403625E-1,3.496728516E-1,9.855804749E0,9.869688154E0
6.891084333E0,4.152365112E-1,3.315605164E-1,9.848170624E0,9.862495545E0
6.901115333E0,4.085005188E-1,3.132984924E-1,9.845027161E0,9.858477997E0
6.911147333E0,3.867956543E-1,2.939886475E-1,9.834998016E0,9.846990717E0
6.921178333E0,3.784130859E-1,2.790197754E-1,9.826166382E0,9.837407904E0
6.931210333E0,3.897894287E-1,2.805166626E-1,9.828411713E0,9.840137305E0
6.941241333E0,3.894900513E-1,2.776725769E-1,9.837093658E0,9.848716475E0
6.951273333E0,4.007167053E-1,2.736309814E-1,9.869276733E0,9.881197854E0
6.961304333E0,4.093986511E-1,2.749781799E-1,9.923913116E0,9.936159811E0
6.971336333E0,4.149371338E-1,2.779719543E-1,9.951904907E0,9.964429362E0
6.981367333E0,4.079017639E-1,2.763253784E-1,9.954898682E0,9.967083190E0
6.991398333E0,4.255650330E-1,2.694396973E-1,9.915081482E0,9.927867049E0
7.001430333E0,3.933819580E-1,2.637515259E-1,9.883497162E0,9.894838573E0
7.011461333E0,3.734733582E-1,2.619552612E-1,9.891879730E0,9.902393019E0
7.021493333E0,3.743714905E-1,2.845582581E-1,9.901310120E0,9.912470403E0
7.031524333E0,3.767665100E-1,2.811154175E-1,9.872420197E0,9.883605588E0
7.041556333E0,3.469784546E-1,2.966830444E-1,9.828860779E0,9.839457256E0
7.051587333E0,3.336561584E-1,3.113525391E-1,9.823172607E0,9.833767686E0
7.061619333E0,3.421884155E-1,3.131488037E-1,9.848320312E0,9.859237702E0
7.071650333E0,3.574566650E-1,3.251239014E-1,9.864486694E0,9.876314017E0
7.081681333E0,3.794609070E-1,3.475772095E-1,9.866582336E0,9.879992282E0
7.091713333E0,3.867956543E-1,3.490740967E-1,9.881401520E0,9.895128074E0
7.101744333E0,3.935316467E-1,3.519181824E-1,9.893077240E0,9.907153519E0
7.111776333E0,3.947291565E-1,3.483256531E-1,9.906249847E0,9.920228218E0
7.121807333E0,3.802093506E-1,3.454815674E-1,9.911189575E0,9.924494721E0
7.131839333E0,3.727249146E-1,3.305126953E-1,9.875863037E0,9.888419147E0
7.141870333E0,3.466790771E-1,3.065625000E-1,9.859846344E0,9.870700931E0
7.151902333E0,3.480262756E-1,2.993774414E-1,9.855355682E0,9.866042001E0
7.161933333E0,3.385958862E-1,2.802172852E-1,9.855355682E0,9.865151014E0
7.171964333E0,3.436853027E-1,2.782713318E-1,9.844578094E0,9.854505182E0
7.181996333E0,3.740721130E-1,2.722837830E-1,9.864187317E0,9.875032143E0
7.192027333E0,3.860472107E-1,2.585124207E-1,9.886041870E0,9.896953318E0
7.202059333E0,4.056564331E-1,2.568658447E-1,9.905800781E0,9.917430429E0
7.212090333E0,4.059558105E-1,2.514770508E-1,9.899962921E0,9.911473486E0
7.222122333E0,4.114942932E-1,2.594105530E-1,9.912387085E0,9.924315549E0
7.232153333E0,4.086502075E-1,2.670446777E-1,9.885592804E0,9.897638756E0
7.242185333E0,4.149371338E-1,2.715353394E-1,9.852810974E0,9.865281970E0
7.252216333E0,3.990701294E-1,2.812651062E-1,9.849517822E0,9.861610840E0
7.262247333E0,3.980223083E-1,2.685415649E-1,9.837542725E0,9.849252925E0
7.272279333E0,3.971241760E-1,2.968327332E-1,9.849218445E0,9.861689574E0
7.282310333E0,4.004173279E-1,3.071612549E-1,9.854906616E0,9.867819743E0
7.292342333E0,4.076023865E-1,3.026705933E-1,9.877659302E0,9.890697775E0
7.302373333E0,4.125421143E-1,3.032693481E-1,9.877958679E0,9.891219892E0
7.312405333E0,4.176315308E-1,3.011737061E-1,9.873468018E0,9.886884868E0
7.322436333E0,4.050576782E-1,3.076103210E-1,9.855355682E0,9.868471587E0
7.332467333E0,3.811074829E-1,2.986289978E-1,9.830806732E0,9.842722347E0
7.342499333E0,3.764671326E-1,2.909948730E-1,9.835896149E0,9.847398568E0
7.352530333E0,3.695814514E-1,2.763253784E-1,9.862241364E0,9.873031494E0
7.362562333E0,3.802093506E-1,2.637515259E-1,9.913434906E0,9.924228718E0
7.372593333E0,3.881428528E-1,2.520758057E-1,9.897717590E0,9.908532211E0
7.382625333E0,3.858975220E-1,2.686912537E-1,9.825867004E0,9.837112090E0
7.392656333E0,3.580554199E-1,2.754272461E-1,9.788295135E0,9.798713462E0
7.402688333E0,3.403921509E-1,2.779719543E-1,9.811496887E0,9.821334247E0
7.412719333E0,3.463796997E-1,2.697390747E-1,9.839638367E0,9.849427458E0
7.422750333E0,3.860472107E-1,2.745291138E-1,9.774972839E0,9.786444334E0
7.432782333E0,3.757186890E-1,2.706372070E-1,9.778265991E0,9.789223403E0
7.442813333E0,3.540138245E-1,2.760260010E-1,9.896520081E0,9.906696011E0
7.452845333E0,4.011657715E-1,2.525248718E-1,9.984387360E0,9.995633733E0
7.462876333E0,4.605921936E-1,2.490820312E-1,1.000863693E1,1.002232509E1
7.472908333E0,4.661306763E-1,2.603086853E-1,9.911039886E0,9.925409314E0
7.482939333E0,4.013154602E-1,2.633024597E-1,9.856702881E0,9.868382540E0
7.492971333E0,3.544628906E-1,2.454895020E-1,9.801767120E0,9.811245982E0
7.503002333E0,3.604504395E-1,2.438429260E-1,9.772577820E0,9.782262578E0
7.513033333E0,3.737727356E-1,2.447410583E-1,9.727820892E0,9.738074941E0
7.523065333E0,4.019142151E-1,2.442919922E-1,9.779912567E0,9.791215626E0
7.533096333E0,4.370910645E-1,2.477348328E-1,9.849517822E0,9.862323381E0
7.543128333E0,4.544549561E-1,2.432441711E-1,9.879455566E0,9.892893375E0
7.553159333E0,4.713697815E-1,2.677931213E-1,9.900711365E0,9.915542756E0
7.563191333E0,4.439767456E-1,2.746788025E-1,9.881700897E0,9.895482627E0
7.573222333E0,4.215234375E-1,3.083587646E-1,9.848170624E0,9.862009520E0
7.583254292E0,4.053570557E-1,3.227288818E-1,9.823771362E0,9.837426089E0
7.593285292E0,3.951782227E-1,3.300636292E-1,9.833501129E0,9.846971732E0
7.603316292E0,3.918850708E-1,3.242257690E-1,9.823921051E0,9.837078889E0
7.613348292E0,3.849993896E-1,3.257226562E-1,9.836644592E0,9.849563270E0
7.623379292E0,3.915856934E-1,2.900967407E-1,9.879605255E0,9.891617435E0
7.633411292E0,4.070036316E-1,2.707868958E-1,9.897717590E0,9.909782591E0
7.643442292E0,4.062551880E-1,2.574645996E-1,9.910740509E0,9.922404383E0
7.653474292E0,4.035607910E-1,2.375559998E-1,9.904603271E0,9.915667407E0
7.663505292E0,3.900888062E-1,2.170486450E-1,9.883048096E0,9.893124838E0
7.673537292E0,4.010160828E-1,2.089654541E-1,9.864337006E0,9.874696199E0
7.683568292E0,3.992198181E-1,2.125579834E-1,9.845027161E0,9.855410552E0
7.693599292E0,4.068539429E-1,2.228865051E-1,9.817185059E0,9.828139753E0
7.703631292E0,4.191284180E-1,2.333647156E-1,9.809251556E0,9.820974688E0
7.713662292E0,4.093986511E-1,2.272274780E-1,9.825867004E0,9.837016924E0
7.723694292E0,4.318519592E-1,2.227368164E-1,9.857002258E0,9.868971645E0
7.733725292E0,4.510121155E-1,2.297721863E-1,9.884395294E0,9.897346994E0
7.743757292E0,4.540058899E-1,2.249821472E-1,9.922116852E0,9.935046106E0
7.753788292E0,4.535568237E-1,2.433938599E-1,9.934241638E0,9.947568109E0
7.763820292E0,4.318519592E-1,2.474354553E-1,9.882299652E0,9.894825255E0
7.773851292E0,4.099974060E-1,2.583627319E-1,9.853409729E0,9.865319684E0
7.783882292E0,3.752696228E-1,2.856060791E-1,9.879605255E0,9.890854266E0
7.793914292E0,3.761677551E-1,2.924917603E-1,9.799970856E0,9.811548419E0
7.803945292E0,3.652404785E-1,2.848576355E-1,9.756261749E0,9.767250780E0
7.813977292E0,3.725752258E-1,2.665956116E-1,9.814041595E0,9.824728900E0
7.824008292E0,4.173321533E-1,2.537223816E-1,9.863438873E0,9.875523661E0
7.834040292E0,4.462220764E-1,2.547702026E-1,9.866282959E0,9.879653912E0
7.844071292E0,4.408332825E-1,2.538720703E-1,9.873767395E0,9.886863384E0
7.854103292E0,4.225712585E-1,2.323168945E-1,9.850266266E0,9.862062823E0
7.864134292E0,4.135899353E-1,2.254312134E-1,9.851613464E0,9.862867926E0
7.874165292E0,4.273612976E-1,2.240840149E-1,9.853858795E0,9.865666956E0
7.884197292E0,4.408332825E-1,2.347119141E-1,9.857301636E0,9.869945248E0
7.894228292E0,4.339476013E-1,2.507286072E-1,9.851912842E0,9.864652148E0
7.904260292E0,4.272116089E-1,2.662962341E-1,9.882898407E0,9.895711413E0
7.914291292E0,4.218228149E-1,2.642005920E-1,9.857002258E0,9.869560778E0
7.924323292E0,4.098477173E-1,2.541714478E-1,9.836045837E0,9.847861493E0
7.934354292E0,4.147874451E-1,2.439926147E-1,9.830657043E0,9.842428508E0
7.944386292E0,4.010160828E-1,2.499801636E-1,9.839189301E0,9.850530446E0
7.954417292E0,4.096980286E-1,2.224374390E-1,9.863738251E0,9.874748765E0
7.964448292E0,4.077520752E-1,2.303709412E-1,9.864636383E0,9.875747237E0
7.974480292E0,4.119433594E-1,2.121089172E-1,9.852661285E0,9.863550169E0
7.984511292E0,3.939807129E-1,2.028282166E-1,9.861941986E0,9.871892414E0
7.994543292E0,3.888912964E-1,2.032772827E-1,9.849667511E0,9.859437518E0
8.004574292E0,4.014651489E-1,2.168989563E-1,9.825417938E0,9.836008188E0
8.014606292E0,4.179309082E-1,2.207908630E-1,9.796378326E0,9.807774629E0
8.024637292E0,4.212240601E-1,2.275268555E-1,9.817783813E0,9.829449485E0
8.034669292E0,4.222718811E-1,2.164498901E-1,9.833351440E0,9.844793784E0
8.044700292E0,4.367916870E-1,2.207908630E-1,9.853858795E0,9.866005713E0
8.054731292E0,4.505630493E-1,2.356100464E-1,9.856553192E0,9.869658555E0
8.064763292E0,4.546046448E-1,2.278262329E-1,9.861193542E0,9.874295330E0
8.074794292E0,4.321513367E-1,2.323168945E-1,9.885143738E0,9.897312394E0
8.084826292E0,4.276606750E-1,2.252815247E-1,9.862391052E0,9.874229220E0
8.094857292E0,4.071533203E-1,2.251318359E-1,9.834848328E0,9.845846830E0
8.104889292E0,3.836521912E-1,2.287243652E-1,9.850266266E0,9.860387890E0
8.114920292E0,3.884422302E-1,2.383044434E-1,9.862391052E0,9.872914141E0
8.124952292E0,4.041595459E-1,2.384541321E-1,9.848619690E0,9.859792853E0
8.134983292E0,4.043092346E-1,2.308200073E-1,9.831405487E0,9.842422348E0
8.145014292E0,4.246669006E-1,2.478845215E-1,9.853858795E0,9.866119899E0
8.155046292E0,4.394860840E-1,2.478845215E-1,9.880952454E0,9.893827174E0
8.165077292E0,4.402345276E-1,2.505789185E-1,9.891280975E0,9.904243311E0
8.175109292E0,4.487667847E-1,2.406994629E-1,9.862989807E0,9.876127571E0
8.185140292E0,4.357438660E-1,2.312690735E-1,9.832303619E0,9.844671278E0
8.195172292E0,4.493655396E-1,2.249821472E-1,9.841434631E0,9.854257047E0
8.205203292E0,4.487667847E-1,2.248324585E-1,9.821675720E0,9.834493135E0
8.215234292E0,4.430786133E-1,2.345622253E-1,9.830207977E0,9.842983642E0
8.225266292E0,4.492158508E-1,2.107617188E-1,9.833351440E0,9.845862884E0
8.235297292E0,4.472698975E-1,2.131567383E-1,9.851763153E0,9.864214281E0
8.245329292E0,4.564009094E-1,2.056723022E-1,9.862391052E0,9.875087855E0
8.255360292E0,4.489164734E-1,2.168989563E-1,9.875713348E0,9.888290312E0
8.265392292E0,4.583468628E-1,2.065704346E-1,9.879455566E0,9.892239154E0
8.275423292E0,4.543052673E-1,2.183958435E-1,9.840536499E0,9.853438416E0
8.285455292E0,4.311035156E-1,2.065704346E-1,9.813742218E0,9.825378258E0
8.295486292E0,4.129911804E-1,1.956431580E-1,9.824819183E0,9.835441523E0
8.305517292E0,4.120930481E-1,2.044747925E-1,9.881700897E0,9.892403310E0
8.315549292E0,4.125421143E-1,1.975891113E-1,9.883197784E0,9.893777383E0
8.325580292E0,4.309538269E-1,2.309696960E-1,9.870324554E0,9.882427587E0
8.335612292E0,4.035607910E-1,2.285746765E-1,9.842632141E0,9.853553428E0
8.345643292E0,3.981719971E-1,2.517764282E-1,9.821526031E0,9.832817800E0
8.355675292E0,3.980223083E-1,2.486329651E-1,9.832752686E0,9.843945626E0
8.365706292E0,4.062551880E-1,2.323168945E-1,9.870174866E0,9.881263396E0
8.375738292E0,4.195774841E-1,2.251318359E-1,9.875413971E0,9.886886806E0
8.385769292E0,4.255650330E-1,2.368075562E-1,9.838440857E0,9.850487395E0
8.395800292E0,4.296066284E-1,2.389031982E-1,9.829160156E0,9.841444303E0
8.405832292E0,4.068539429E-1,2.094145203E-1,9.834848328E0,9.845487606E0
8.415863292E0,4.490661621E-1,2.154020691E-1,9.970615997E0,9.983047723E0
8.425895292E0,4.894821167E-1,2.088157654E-1,9.895472260E0,9.909771340E0
8.435926292E0,4.803511047E-1,1.905537415E-1,9.849068756E0,9.862616452E0
8.445958292E0,4.361929321E-1,1.886077881E-1,9.811347198E0,9.822849435E0
8.455989292E0,4.005670166E-1,2.058219910E-1,9.792785797E0,9.803135738E0
8.466021292E0,4.035607910E-1,2.146536255E-1,9.767189026E0,9.777879062E0
8.476052292E0,4.165837097E-1,2.056723022E-1,9.775571594E0,9.786605289E0
8.486084292E0,4.331991577E-1,1.942959595E-1,9.838141479E0,9.849590865E0
8.496115292E0,4.695735168E-1,2.073188782E-1,9.872120819E0,9.885456483E0
8.506146292E0,4.773573303E-1,2.377056885E-1,9.896370392E0,9.910727569E0
8.516178292E0,4.733157349E-1,2.492317200E-1,9.900262299E0,9.914703113E0
8.526209292E0,4.712200928E-1,2.733316040E-1,9.869426422E0,9.884449223E0
8.536241292E0,4.444258118E-1,2.722837830E-1,9.814340973E0,9.828170811E0
8.546272292E0,4.266128540E-1,2.607577515E-1,9.799521790E0,9.812268873E0
8.556304292E0,4.318519592E-1,2.686912537E-1,9.811496887E0,9.824671102E0
8.566335292E0,4.254153442E-1,2.627037048E-1,9.846374359E0,9.859060780E0
8.576366792E0,4.296066284E-1,2.398013306E-1,9.897418213E0,9.909639439E0
8.586398792E0,4.502636719E-1,2.028282166E-1,9.907597046E0,9.919896969E0
8.596429792E0,4.724176025E-1,1.839674377E-1,9.927954712E0,9.940890663E0
8.606461792E0,4.658312988E-1,1.857637024E-1,9.915979614E0,9.928653416E0
8.616492792E0,4.549040222E-1,1.878593445E-1,9.893975372E0,9.906209036E0
8.626524792E0,4.552033997E-1,1.832189941E-1,9.883048096E0,9.895222029E0
8.636555792E0,4.462220764E-1,1.951940918E-1,9.823471985E0,9.835538456E0
8.646587792E0,4.355941772E-1,2.046244812E-1,9.803862762E0,9.815668012E0
8.656618792E0,4.391867065E-1,2.050735474E-1,9.787846069E0,9.799840346E0
8.666649792E0,4.460723877E-1,2.085163879E-1,9.759105835E0,9.771520166E0
8.676681792E0,4.412823486E-1,2.195933533E-1,9.749525757E0,9.761977455E0
8.686712792E0,4.475692749E-1,2.133064270E-1,9.776918793E0,9.789482058E0
8.696744792E0,4.442761230E-1,2.053729248E-1,9.826316071E0,9.838498200E0
8.706775792E0,4.540058899E-1,2.017803955E-1,9.880503387E0,9.892986600E0
8.716807792E0,4.653822327E-1,2.125579834E-1,9.892328796E0,9.905550491E0
8.726838792E0,4.788542175E-1,2.113604736E-1,9.992620239E0,1.000631970E1
8.736870792E0,4.858895874E-1,2.140548706E-1,9.932744751E0,9.946925478E0
8.746901792E0,4.848417664E-1,2.055226135E-1,9.855954437E0,9.870012612E0
8.756932792E0,4.689747620E-1,1.724414062E-1,9.840087433E0,9.852765807E0
8.766964792E0,4.810995483E-1,1.676513672E-1,9.788893890E0,9.802142998E0
8.776995792E0,5.252577209E-1,1.713935852E-1,9.820029144E0,9.835560169E0
8.787027792E0,5.363346863E-1,1.884580994E-1,9.868079224E0,9.884440243E0
8.797058792E0,5.439688110E-1,1.793270874E-1,9.882748718E0,9.899332427E0
8.807090792E0,5.382806396E-1,1.863624573E-1,9.887538757E0,9.903933546E0
8.817121792E0,5.074447632E-1,1.856140137E-1,9.886490936E0,9.901245163E0
8.827153792E0,5.162763977E-1,2.004331970E-1,9.851314087E0,9.866869008E0
8.837184792E0,5.284011841E-1,2.179467773E-1,9.839189301E0,9.855777732E0
8.847215792E0,4.995112610E-1,2.146536255E-1,9.838291168E0,9.853302025E0
8.857247792E0,4.956193542E-1,2.014810181E-1,9.880802765E0,9.895276470E0
8.867278792E0,5.072950745E-1,2.004331970E-1,9.881700897E0,9.896743625E0
8.877310792E0,5.016069031E-1,1.860630798E-1,9.883796539E0,9.898265655E0
8.887341792E0,5.149291992E-1,1.664538574E-1,9.898316345E0,9.913098680E0
8.897373792E0,4.971162415E-1,1.514849854E-1,9.881551208E0,9.895207251E0
8.907404792E0,4.842430115E-1,1.504371643E-1,9.831255798E0,9.844323908E0
8.917436792E0,4.531077576E-1,1.414558411E-1,9.760602722E0,9.772138041E0
8.927467792E0,4.343966675E-1,1.419049072E-1,9.754615173E0,9.765313853E0
8.937498792E0,4.459226990E-1,1.445993042E-1,9.785900116E0,9.797121878E0
8.947530792E0,4.715194702E-1,1.344204712E-1,9.821975098E0,9.834205321E0
8.957561792E0,5.029541016E-1,1.411564636E-1,9.841734009E0,9.855588074E0
8.967593792E0,5.072950745E-1,1.339714050E-1,9.854607239E0,9.868565269E0
8.977624792E0,5.249583435E-1,1.179547119E-1,9.856702881E0,9.871377121E0
8.987656792E0,5.432203674E-1,1.231938171E-1,9.869875488E0,9.885580774E0
8.997687792E0,5.652246094E-1,1.243913269E-1,9.880503387E0,9.897439025E0
9.007719792E0,5.519023132E-1,1.475930786E-1,9.871372375E0,9.887890192E0
9.017750792E0,5.364843750E-1,1.429527283E-1,9.838590546E0,9.854243497E0
9.027781792E0,5.298980713E-1,1.615141296E-1,9.824519806E0,9.840125416E0
9.037813792E0,5.095404053E-1,1.712438965E-1,9.807305603E0,9.822026221E0
9.047844792E0,4.936734009E-1,1.757345581E-1,9.824669495E0,9.838634394E0
9.057876792E0,5.051994324E-1,1.887574768E-1,9.820478210E0,9.835275702E0
9.067907792E0,5.013075256E-1,1.914518738E-1,9.831854553E0,9.846488055E0
9.077939792E0,5.095404053E-1,1.875599670E-1,9.865384827E0,9.880315174E0
9.087970792E0,5.183720398E-1,1.793270874E-1,9.858648834E0,9.873896121E0
9.098002792E0,5.318440247E-1,1.704954529E-1,9.869875488E0,9.885664819E0
9.108033792E0,5.270539856E-1,1.517843628E-1,9.866282959E0,9.881516271E0
9.118064792E0,5.246589661E-1,1.417552185E-1,9.851912842E0,9.866891517E0
9.128096792E0,5.240602112E-1,1.134640503E-1,9.880653076E0,9.895191681E0
9.138127792E0,5.421725464E-1,1.077758789E-1,9.907896423E0,9.923304805E0
9.148159792E0,5.492079163E-1,1.038839722E-1,9.910291443E0,9.926041391E0
9.158190792E0,5.325924683E-1,1.154100037E-1,9.894424438E0,9.909420224E0
9.168222792E0,5.174739075E-1,1.246907043E-1,9.861343231E0,9.875698322E0
9.178253792E0,4.923262024E-1,1.312770081E-1,9.815688171E0,9.828903958E0
9.188285792E0,4.802014160E-1,1.321751404E-1,9.816735992E0,9.829362605E0
9.198316792E0,4.936734009E-1,1.306782532E-1,9.846224670E0,9.859458935E0
9.208347792E0,5.233117676E-1,1.371148682E-1,9.860744476E0,9.875572759E0
9.218379792E0,5.248086548E-1,1.483415222E-1,9.831704865E0,9.846819277E0
9.228410792E0,4.965174866E-1,1.559756470E-1,9.814340973E0,9.828130379E0
9.238442792E0,5.031037903E-1,1.434017944E-1,9.834249573E0,9.848154251E0
9.248473792E0,5.402265930E-1,1.393601990E-1,9.852062531E0,9.867846885E0
9.258505792E0,5.647755432E-1,1.338217163E-1,9.879754944E0,9.896789248E0
9.268536792E0,5.581892395E-1,1.182540894E-1,9.842482452E0,9.859007054E0
9.278568792E0,5.348377991E-1,1.083746338E-1,9.790690155E0,9.805886510E0
9.288599792E0,4.834945679E-1,1.131646729E-1,9.802365875E0,9.814935048E0
9.298630792E0,4.706213379E-1,1.188528442E-1,9.801467743E0,9.813479523E0
9.308662792E0,4.839436340E-1,1.202000427E-1,9.822873230E0,9.835521744E0
9.318693792E0,4.932243347E-1,1.302291870E-1,9.881850586E0,9.895008888E0
9.328725792E0,5.099894714E-1,1.264869690E-1,9.897567902E0,9.911505364E0
9.338756792E0,5.224136353E-1,1.532812500E-1,9.902507629E0,9.917462805E0
9.348788792E0,5.261558533E-1,1.640588379E-1,9.850116577E0,9.865523396E0
9.358819792E0,5.252577209E-1,1.794767761E-1,9.808054047E0,9.823748356E0
9.368851792E0,5.104385376E-1,1.896556091E-1,9.786199493E0,9.801337525E0
9.378882792E0,5.126838684E-1,1.890568542E-1,9.804311829E0,9.819527365E0
9.388913792E0,5.292993164E-1,1.654060364E-1,9.864786072E0,9.880360376E0
9.398945792E0,5.593867493E-1,1.537303162E-1,9.916129303E0,9.933084460E0
9.408976792E0,5.602848816E-1,1.219963074E-1,9.940977631E0,9.957501619E0
9.419008792E0,5.620811462E-1,1.158590698E-1,9.920470276E0,9.937056357E0
9.429039792E0,5.487588501E-1,1.044827271E-1,9.874964905E0,9.890752488E0
9.439071792E0,5.195695496E-1,1.067280579E-1,9.813143463E0,9.827468037E0
9.449102792E0,5.237608337E-1,9.999206543E-2,9.827663269E0,9.842118123E0
9.459134792E0,5.267546082E-1,9.639953613E-2,9.833950195E0,9.848519672E0
9.469165792E0,5.333409119E-1,1.080752563E-1,9.870773621E0,9.885762725E0
9.479196792E0,5.583389282E-1,1.169068909E-1,9.898615723E0,9.915039224E0
9.489228792E0,5.743556213E-1,1.193019104E-1,9.883796539E0,9.901189391E0
9.499259792E0,5.819897461E-1,1.079255676E-1,9.868677979E0,9.886413153E0
9.509291792E0,5.737568665E-1,1.100212097E-1,9.846673737E0,9.863989319E0
9.519322792E0,5.727090454E-1,9.969268799E-2,9.816436615E0,9.833634226E0
9.529354792E0,5.565426636E-1,1.210981750E-1,9.819280701E0,9.835785580E0
9.539385792E0,5.487588501E-1,1.345701599E-1,9.860445099E0,9.876620017E0
9.549417792E0,5.412744141E-1,1.389111328E-1,9.853559418E0,9.869392458E0
9.559448792E0,5.628295898E-1,1.434017944E-1,9.810299377E0,9.827477555E0
9.569479792E0,5.472619629E-1,1.734892273E-1,9.915829926E0,9.932435617E0
9.579511417E0,5.450166321E-1,1.764830017E-1,9.857750702E0,9.874382932E0
9.589542417E0,5.442681885E-1,1.688488770E-1,9.767338715E0,9.783948251E0
9.599574417E0,5.063969421E-1,1.392105103E-1,9.749675446E0,9.763810154E0
9.609605417E0,5.289999390E-1,1.407073975E-1,9.793534241E0,9.808820135E0
9.619637417E0,5.807922363E-1,1.445993042E-1,9.879305878E0,9.897419523E0
9.629668417E0,5.993536377E-1,1.472937012E-1,9.931547241E0,9.950706046E0
9.639700417E0,6.054908752E-1,1.225950623E-1,9.913434906E0,9.932665321E0
9.649731417E0,5.903723145E-1,1.106199646E-1,9.895771637E0,9.913983687E0
9.659762417E0,5.869294739E-1,1.020877075E-1,9.882449341E0,9.900389542E0
9.669794417E0,5.876779175E-1,9.595046997E-2,9.853858795E0,9.871833922E0
9.679825417E0,5.935157776E-1,1.228944397E-1,9.837842102E0,9.856495384E0
9.689857417E0,5.831872559E-1,1.031355286E-1,9.867181091E0,9.884938391E0
9.699888417E0,5.882766724E-1,9.969268799E-2,9.906249847E0,9.924202442E0
9.709920417E0,6.122268677E-1,9.924362183E-2,9.844727783E0,9.864245342E0
9.719951417E0,5.902226257E-1,9.924362183E-2,9.822424164E0,9.840641671E0
9.729983417E0,5.557942200E-1,9.280700684E-2,9.822573853E0,9.838723365E0
9.740014417E0,5.517526245E-1,9.041198730E-2,9.848170624E0,9.864029092E0
9.750045417E0,5.592370605E-1,9.535171509E-2,9.842033386E0,9.858370008E0
9.760077417E0,5.566923523E-1,9.056167603E-2,9.823771362E0,9.839948759E0
9.770108417E0,5.343887329E-1,8.951385498E-2,9.808652802E0,9.823606966E0
9.780140417E0,5.164260864E-1,8.696914673E-2,9.812544708E0,9.826509715E0
9.790171417E0,5.189707947E-1,1.082249451E-1,9.861343231E0,9.875582699E0
9.800203417E0,5.569917297E-1,1.070274353E-1,9.874964905E0,9.891239888E0
9.810234417E0,5.897735596E-1,1.004411316E-1,9.904752960E0,9.922804668E0
9.820266417E0,5.944139099E-1,1.143621826E-1,9.877808990E0,9.896338568E0
9.830297417E0,5.971083069E-1,9.804611206E-2,9.842632141E0,9.861214876E0
9.840328417E0,5.809419250E-1,1.019380188E-1,9.828112335E0,9.845794887E0
9.850360417E0,5.670208740E-1,9.116043091E-2,9.794432373E0,9.811255190E0
9.860391417E0,5.635780334E-1,8.592132568E-2,9.802964630E0,9.819527393E0
9.870423417E0,5.789959717E-1,9.235794067E-2,9.857301636E0,9.874723382E0
9.880454417E0,6.015989685E-1,9.430389404E-2,9.883796539E0,9.902537482E0
9.890486417E0,6.083349609E-1,9.340576172E-2,9.892927551E0,9.912053854E0
9.900517417E0,5.986051941E-1,1.161584473E-1,9.881251831E0,9.900048420E0
9.910549417E0,5.780978394E-1,9.999206543E-2,9.836494904E0,9.853975214E0
9.920580417E0,5.655239868E-1,9.490264893E-2,9.770631866E0,9.787444557E0
9.930611417E0,5.429209900E-1,8.966354370E-2,9.725276184E0,9.740831567E0
9.940643417E0,5.477110291E-1,1.068777466E-1,9.752968597E0,9.768920446E0
9.950674417E0,5.614823914E-1,1.080752563E-1,9.815239105E0,9.831879852E0
9.960706417E0,5.944139099E-1,1.140628052E-1,9.845775604E0,9.864361889E0
9.970737417E0,6.027964783E-1,1.119671631E-1,9.899513855E0,9.918481477E0
9.980769417E0,6.120771790E-1,1.215472412E-1,9.928254089E0,9.947846072E0
9.990800417E0,6.084846497E-1,1.085243225E-1,9.917027435E0,9.936270138E0
1.000083242E1,6.020480347E-1,9.774673462E-2,9.925859070E0,9.944581164E0
1.001086342E1,5.930667114E-1,7.888595581E-2,9.896220703E0,9.914289451E0
1.002089442E1,5.828878784E-1,8.277786255E-2,9.812395020E0,9.830041021E0
1.003092642E1,5.519023132E-1,8.741821289E-2,9.823621674E0,9.839501049E0
1.004095742E1,5.662724304E-1,7.274871826E-2,9.869426422E0,9.885926094E0
1.005098942E1,6.176156616E-1,4.894821167E-2,9.901010742E0,9.920375938E0
1.006102042E1,6.280938721E-1,5.733078003E-2,9.876312103E0,9.896430139E0
1.007105242E1,6.105802917E-1,5.673202515E-2,9.818532257E0,9.837662451E0
1.008108342E1,5.649252319E-1,4.610412598E-2,9.726922760E0,9.743423037E0
1.009111542E1,5.650749207E-1,6.256988525E-2,9.746082916E0,9.762651119E0
1.010114642E1,5.593867493E-1,7.095245361E-2,9.772577820E0,9.788831648E0
1.011117742E1,5.770500183E-1,8.113128662E-2,9.774673462E0,9.792027895E0
1.012120942E1,5.801934814E-1,9.026229858E-2,9.806108093E0,9.823671803E0
1.013124042E1,5.954617310E-1,1.076261902E-1,9.841434631E0,9.860019963E0
1.014127242E1,5.947132874E-1,1.204994202E-1,9.845027161E0,9.863709434E0
1.015130342E1,5.879772949E-1,1.481918335E-1,9.818232880E0,9.836939310E0
1.016133542E1,5.673202515E-1,1.703457642E-1,9.779164124E0,9.797087368E0
1.017136642E1,5.655239868E-1,1.766326904E-1,9.792935486E0,9.810841040E0
1.018139842E1,5.519023132E-1,1.453477478E-1,9.826765137E0,9.843324397E0
1.019142942E1,5.614823914E-1,1.330732727E-1,9.882000275E0,9.898833285E0
1.020146042E1,5.939648438E-1,1.043330383E-1,9.929750977E0,9.948046747E0
1.021149242E1,5.899232483E-1,4.625381470E-2,9.949060822E0,9.966642368E0
1.022152342E1,5.972579956E-1,1.841171265E-2,9.924511871E0,9.942484196E0
1.023155542E1,5.965095520E-1,-5.688171387E-3,9.903854828E0,9.921804093E0
1.024158642E1,5.776487732E-1,-1.871109009E-2,9.892777863E0,9.909645909E0
1.025161842E1,5.682183838E-1,-2.454895020E-2,9.862690430E0,9.879075731E0
1.026164942E1,5.863307190E-1,-1.107696533E-2,9.846524048E0,9.863971930E0
1.027168142E1,5.837860107E-1,-1.047821045E-2,9.853260040E0,9.870544530E0
1.028171242E1,6.101312256E-1,1.945953369E-3,9.852810974E0,9.871684152E0
1.029174342E1,6.477030945E-1,3.293151855E-2,9.881251831E0,9.902511880E0
1.030177542E1,6.599775696E-1,2.050735474E-2,9.906399536E0,9.928380669E0
1.031180642E1,6.692582703E-1,1.975891113E-2,9.904004517E0,9.926610827E0
1.032183842E1,6.542893982E-1,2.245330811E-2,9.882449341E0,9.904110447E0
1.033186942E1,6.382727051E-1,4.326004028E-2,9.855205994E0,9.875947988E0
1.034190142E1,6.276448059E-1,5.777984619E-2,9.849667511E0,9.869813909E0
1.035193242E1,6.146218872E-1,7.679031372E-2,9.853110352E0,9.872559973E0
1.036196442E1,6.177653503E-1,7.170089722E-2,9.794132996E0,9.813858374E0
1.037199542E1,6.033952332E-1,8.427474976E-2,9.757459259E0,9.776461488E0
1.038202642E1,6.004014587E-1,1.118174744E-1,9.882898407E0,9.901750652E0
1.039205842E1,5.917195129E-1,1.106199646E-1,9.839338989E0,9.857736074E0
1.040208942E1,5.894741821E-1,7.589218140E-2,9.763596497E0,9.781669386E0
1.041212142E1,6.001020813E-1,5.403762817E-2,9.858349457E0,9.876745243E0
1.042215242E1,6.518943787E-1,4.221221924E-2,9.961035919E0,9.982433808E0
1.043218442E1,6.936575317E-1,5.433700562E-2,9.927805023E0,9.952156845E0
1.044221542E1,6.598278809E-1,2.170486450E-2,9.848619690E0,9.870722047E0
1.045224742E1,6.282435608E-1,-9.580078125E-3,9.823322296E0,9.843395892E0
1.046227842E1,6.249504089E-1,-2.275268555E-2,9.817484436E0,9.837381834E0
1.047230942E1,6.402186584E-1,-1.901046753E-2,9.820627899E0,9.841492451E0
1.048234142E1,6.459068298E-1,-8.083190918E-3,9.832153931E0,9.853350287E0
1.049237242E1,6.349795532E-1,-6.586303711E-3,9.809101868E0,9.829634879E0
1.050240442E1,6.487509155E-1,-1.496887207E-3,9.850715332E0,9.872055133E0
1.051243542E1,6.527925110E-1,-2.963836670E-2,9.864486694E0,9.886107133E0
1.052246742E1,6.864724731E-1,-2.185455322E-2,9.857750702E0,9.881648191E0
1.053249842E1,6.851252747E-1,-2.859054565E-2,9.855655060E0,9.879481298E0
1.054253042E1,6.807843018E-1,-2.320175171E-2,9.829459534E0,9.853034066E0
1.055256142E1,6.445596313E-1,-2.140548706E-2,9.799671478E0,9.820869432E0
1.056259342E1,6.309379578E-1,-1.556762695E-2,9.819430389E0,9.839691978E0
1.057262442E1,6.200106812E-1,1.586700439E-2,9.789342957E0,9.808970411E0
1.058265617E1,6.171665955E-1,1.706451416E-2,9.810149689E0,9.829558623E0
1.059268817E1,6.369255066E-1,2.065704346E-2,9.853559418E0,9.874144723E0
1.060271917E1,6.375242615E-1,2.020797729E-2,9.860894165E0,9.881501874E0
1.061275117E1,6.349795532E-1,2.709365845E-2,9.864486694E0,9.884939597E0
1.062278217E1,6.360273743E-1,1.002914429E-2,9.837692413E0,9.858236324E0
1.063281417E1,6.453080750E-1,6.436614990E-3,9.874815216E0,9.895879925E0
1.064284517E1,6.313870239E-1,1.811233521E-2,9.886490936E0,9.906648306E0
1.065287717E1,6.268963623E-1,1.002914429E-2,9.878407745E0,9.898284660E0
1.066290817E1,6.228547668E-1,2.080673218E-2,9.843380585E0,9.863088883E0
1.067293917E1,6.289920044E-1,1.242416382E-2,9.817933502E0,9.838069097E0
1.068297117E1,6.095324707E-1,-5.837860107E-3,9.787397003E0,9.806360386E0
1.069300217E1,5.861810303E-1,-2.095642090E-3,9.788145447E0,9.805682224E0
1.070303417E1,5.795947266E-1,6.137237549E-3,9.792935486E0,9.810074064E0
1.071306517E1,6.057902527E-1,4.041595459E-3,9.815987549E0,9.834663681E0
1.072309717E1,6.188131714E-1,8.981323242E-4,9.839937744E0,9.859376520E0
1.073312817E1,6.475534058E-1,2.844085693E-3,9.872120819E0,9.893336291E0
1.074316017E1,6.517446899E-1,6.586303711E-3,9.871971130E0,9.893463929E0
1.075319117E1,6.589297485E-1,-4.939727783E-3,9.852960663E0,9.874970716E0
1.076322217E1,6.394702148E-1,-2.320175171E-2,9.822274475E0,9.843095872E0
1.077325417E1,6.282435608E-1,-2.380050659E-2,9.834698639E0,9.854773146E0
1.078328517E1,6.415658569E-1,-2.799179077E-2,9.847422180E0,9.868338963E0
1.079331717E1,6.400689697E-1,-2.170486450E-2,9.870623932E0,9.891378882E0
1.080334817E1,6.509962463E-1,-6.137237549E-3,9.860295410E0,9.881763980E0
1.081338017E1,6.309379578E-1,8.681945801E-3,9.832752686E0,9.852978405E0
1.082341117E1,6.036946106E-1,2.664459229E-2,9.820927277E0,9.839500480E0
1.083344317E1,6.096821594E-1,3.338058472E-2,9.830058289E0,9.849003633E0
1.084347417E1,6.246510315E-1,4.700225830E-2,9.849368134E0,9.869267995E0
1.085350517E1,6.325845337E-1,5.493576050E-2,9.803563385E0,9.824104854E0
1.086353717E1,6.158193970E-1,7.529342651E-2,9.746082916E0,9.765809482E0
1.087356817E1,5.965095520E-1,6.002517700E-2,9.808802490E0,9.827107049E0
1.088360017E1,6.243516541E-1,4.236190796E-2,9.869576111E0,9.889395438E0
1.089363117E1,6.499484253E-1,1.841171265E-2,9.872420197E0,9.893808796E0
1.090366317E1,6.348298645E-1,3.068618774E-2,9.919422455E0,9.939763198E0
1.091369417E1,6.155200195E-1,3.622467041E-2,9.896819458E0,9.916007892E0
1.092372617E1,5.908213806E-1,1.916015625E-2,9.806856537E0,9.824656338E0
1.093375717E1,5.670208740E-1,2.305206299E-2,9.800270233E0,9.816686850E0
1.094378817E1,5.763015747E-1,1.616638184E-2,9.848769379E0,9.865629383E0
1.095382017E1,5.875282288E-1,9.131011963E-3,9.858648834E0,9.876144472E0
1.096385117E1,5.947132874E-1,8.232879639E-3,9.862241364E0,9.880159735E0
1.097388317E1,6.132746887E-1,9.280700684E-3,9.867779846E0,9.886823103E0
1.098391417E1,6.279441833E-1,3.472778320E-2,9.846973114E0,9.867036000E0
1.099394617E1,6.336323547E-1,6.092330933E-2,9.827812958E0,9.848406427E0
1.100397717E1,6.086343384E-1,6.990463257E-2,9.806407471E0,9.825525426E0
1.101400917E1,5.927673340E-1,9.145980835E-2,9.788444824E0,9.806803255E0
1.102404017E1,5.926176453E-1,8.457412720E-2,9.827513580E0,9.845728598E0
1.103407117E1,5.758525085E-1,7.783813477E-2,9.870025177E0,9.887115954E0
1.104410317E1,6.107299805E-1,7.244934082E-2,9.911938019E0,9.930999713E0
1.105413417E1,6.174659729E-1,5.658233643E-2,9.914033661E0,9.933404714E0
1.106416617E1,6.147715759E-1,5.538482666E-2,9.910291443E0,9.929495861E0
1.107419717E1,6.185137939E-1,4.131408691E-2,9.907746735E0,9.927120002E0
1.108422917E1,5.981561279E-1,5.059478760E-2,9.873767395E0,9.891998441E0
1.109426017E1,6.098318481E-1,4.281097412E-2,9.874815216E0,9.893720393E0
1.110429217E1,5.912704468E-1,2.784210205E-2,9.862989807E0,9.880735998E0
1.111432317E1,6.087840271E-1,2.724334717E-2,9.854307861E0,9.873132412E0
1.112435417E1,6.140231323E-1,9.580078125E-3,9.867480469E0,9.886571043E0
1.113438617E1,6.018983459E-1,1.526824951E-2,9.855804749E0,9.874178547E0
1.114441717E1,6.177653503E-1,1.377136230E-2,9.847422180E0,9.866790120E0
1.115444917E1,6.110293579E-1,4.939727783E-3,9.851314087E0,9.870246730E0
1.116448017E1,6.077362061E-1,2.754272461E-2,9.852810974E0,9.871574646E0
1.117451217E1,5.954617310E-1,4.715194702E-2,9.847721558E0,9.865820688E0
1.118454317E1,6.027964783E-1,8.173004150E-2,9.849368134E0,9.868135387E0
1.119457517E1,6.029461670E-1,9.699829102E-2,9.867330780E0,9.886211078E0
1.120460617E1,6.087840271E-1,1.181044006E-1,9.848170624E0,9.867676083E0
1.121463717E1,5.824388123E-1,1.228944397E-1,9.758207703E0,9.776346740E0
1.122466917E1,5.556445312E-1,1.314266968E-1,9.862391052E0,9.878905359E0
1.123470017E1,5.667214966E-1,1.351689148E-1,9.839488678E0,9.856722647E0
1.124473217E1,5.580395508E-1,1.538800049E-1,9.687255249E0,9.704535097E0
1.125476317E1,5.240602112E-1,1.011895752E-1,9.758656769E0,9.773242060E0
1.126479517E1,5.903723145E-1,7.020401001E-2,9.917027435E0,9.934832723E0
1.127482617E1,6.524931335E-1,6.451583862E-2,9.944420471E0,9.966012648E0
1.128485817E1,6.198609924E-1,5.673202515E-2,9.925260315E0,9.944759348E0
1.129488917E1,5.824388123E-1,4.056564331E-2,9.883497162E0,9.900727079E0
1.130492117E1,5.766009521E-1,4.221221924E-2,9.843979340E0,9.860942134E0
1.131495217E1,5.743556213E-1,6.571334839E-2,9.828112335E0,9.845100035E0
1.132498317E1,5.507048035E-1,8.666976929E-2,9.839937744E0,9.855717236E0
1.133501517E1,5.698649597E-1,1.034349060E-1,9.849368134E0,9.866382188E0
1.134504617E1,5.875282288E-1,1.213975525E-1,9.850565643E0,9.868818079E0
1.135507817E1,5.646258545E-1,1.083746338E-1,9.882000275E0,9.898710868E0
1.136510917E1,5.860313416E-1,9.580078125E-2,9.917476501E0,9.935237827E0
1.137514117E1,5.962101746E-1,8.173004150E-2,9.901160431E0,9.919431650E0
1.138517217E1,6.066883850E-1,9.056167603E-2,9.914033661E0,9.932992280E0
1.139520417E1,5.879772949E-1,8.666976929E-2,9.852212219E0,9.870122317E0
1.140523517E1,5.402265930E-1,1.160087585E-1,9.803264008E0,9.818823148E0
1.141526617E1,5.168751526E-1,1.269360352E-1,9.762698364E0,9.777195510E0
1.142529817E1,5.098397827E-1,1.245410156E-1,9.731563110E0,9.745705087E0
1.143532917E1,5.066963196E-1,1.323248291E-1,9.744586029E0,9.758647852E0
1.144536117E1,5.207670593E-1,1.315763855E-1,9.789193268E0,9.803918375E0
1.145539217E1,5.490582275E-1,1.481918335E-1,9.848919067E0,9.865324757E0
1.146542417E1,5.718109131E-1,1.528321838E-1,9.886490936E0,9.904192467E0
1.147545517E1,5.872288513E-1,1.466949463E-1,9.898466034E0,9.916954520E0
1.148548717E1,5.785469055E-1,1.291813660E-1,9.892777863E0,9.910522599E0
1.149551817E1,5.755531311E-1,1.357676697E-1,9.878108368E0,9.895793005E0
1.150554917E1,5.475613403E-1,1.314266968E-1,9.873617706E0,9.889662431E0
1.151558117E1,5.379812622E-1,1.296304321E-1,9.860894165E0,9.876409349E0
1.152561217E1,5.417234802E-1,1.475930786E-1,9.828860779E0,9.844884573E0
1.153564417E1,5.149291992E-1,1.496887207E-1,9.802365875E0,9.817022743E0
1.154567517E1,5.146298218E-1,1.459465027E-1,9.826465759E0,9.841014864E0
1.155570717E1,5.358856201E-1,1.437011719E-1,9.867181091E0,9.882767128E0
1.156573817E1,5.575904846E-1,1.451980591E-1,9.901010742E0,9.917762013E0
1.157577017E1,5.595364380E-1,1.351689148E-1,9.903854828E0,9.920569143E0
1.158580067E1,5.477110291E-1,1.369651794E-1,9.879754944E0,9.895873109E0
1.159583167E1,5.542973328E-1,1.416055298E-1,9.858948212E0,9.875533277E0
1.160586367E1,5.463638306E-1,1.276844788E-1,9.842033386E0,9.858013894E0
1.161589467E1,5.315446472E-1,1.514849854E-1,9.838889923E0,9.854402180E0
1.162592667E1,5.444178772E-1,1.408570862E-1,9.841135254E0,9.857188982E0
1.163595767E1,5.466632080E-1,1.609153748E-1,9.830357666E0,9.846860731E0
1.164598967E1,5.495072937E-1,1.663041687E-1,9.820777588E0,9.837544804E0
1.165602067E1,5.358856201E-1,1.667532349E-1,9.821226654E0,9.837249261E0
1.166605267E1,5.429209900E-1,1.633103943E-1,9.834399261E0,9.850728010E0
1.167608367E1,5.442681885E-1,1.643582153E-1,9.885742493E0,9.902077869E0
1.168611467E1,5.384303284E-1,1.685494995E-1,9.898166656E0,9.914233168E0
1.169614667E1,5.242098999E-1,1.832189941E-1,9.848769379E0,9.864411969E0
1.170617767E1,4.802014160E-1,2.140548706E-1,9.814340973E0,9.828412976E0
1.171620967E1,4.704716492E-1,2.127076721E-1,9.750872955E0,9.764533349E0
1.172624067E1,4.752616882E-1,2.252815247E-1,9.760752411E0,9.774912433E0
1.173627267E1,4.962181091E-1,2.269281006E-1,9.801467743E0,9.816643963E0
1.174630367E1,5.270539856E-1,2.007325745E-1,9.800270233E0,9.816484916E0
1.175633567E1,5.077441406E-1,2.085163879E-1,9.785750427E0,9.801132313E0
1.176636667E1,4.969665527E-1,2.097138977E-1,9.898765411E0,9.913451081E0
1.177639867E1,5.321434021E-1,1.727407837E-1,9.950108643E0,9.965825504E0
1.178642967E1,5.372328186E-1,1.511856079E-1,9.953102417E0,9.968737328E0
1.179646067E1,5.360353088E-1,1.740879822E-1,9.963281250E0,9.979209074E0
1.180649267E1,5.164260864E-1,1.811233521E-1,9.893825684E0,9.908949905E0
1.181652367E1,4.978646851E-1,1.892065430E-1,9.816586304E0,9.831024108E0
1.182655567E1,5.050497437E-1,1.827699280E-1,9.770781555E0,9.785532806E0
1.183658667E1,4.849914551E-1,1.634600830E-1,9.737251282E0,9.750692203E0
1.184661867E1,4.812492371E-1,1.695973206E-1,9.716444550E0,9.729833440E0
1.185664967E1,4.980143738E-1,1.692979431E-1,9.807904358E0,9.821999186E0
1.186668167E1,5.352868652E-1,1.721420288E-1,9.888287201E0,9.904261137E0
1.187671267E1,5.530998230E-1,2.092648315E-1,9.908644867E0,9.926275952E0
1.188674367E1,5.310955811E-1,2.421963501E-1,9.857002258E0,9.874270358E0
1.189677567E1,5.041516113E-1,2.704875183E-1,9.828561401E0,9.845199417E0
1.190680667E1,4.834945679E-1,2.730322266E-1,9.816885681E0,9.832576370E0
1.191683867E1,4.824467468E-1,2.754272461E-1,9.863438873E0,9.879070879E0
1.192686967E1,4.948709106E-1,2.676434326E-1,9.913883972E0,9.929835126E0
1.193690167E1,5.114863586E-1,2.450404358E-1,9.950258331E0,9.966408780E0
1.194693267E1,5.201683044E-1,2.167492676E-1,9.955796814E0,9.971732322E0
1.195696467E1,5.174739075E-1,1.975891113E-1,9.927056580E0,9.942498330E0
1.196699567E1,4.936734009E-1,1.880090332E-1,9.855355682E0,9.869503354E0
1.197702667E1,4.701722717E-1,1.854643250E-1,9.793683929E0,9.806717284E0
1.198705867E1,4.680766296E-1,1.917512512E-1,9.752519531E0,9.765628576E0
1.199708967E1,4.716691589E-1,2.104623413E-1,9.792187042E0,9.805798961E0
1.200712167E1,4.827461243E-1,2.113604736E-1,9.834099884E0,9.848209868E0
1.201715267E1,5.128335571E-1,2.098635864E-1,9.880653076E0,9.896178363E0
1.202718467E1,5.328918457E-1,2.131567383E-1,9.916428680E0,9.933024076E0
1.203721567E1,5.385800171E-1,1.981878662E-1,9.924811249E0,9.941389500E0
1.204724767E1,5.275030518E-1,1.986369324E-1,9.898915100E0,9.914950139E0
1.205727867E1,5.248086548E-1,2.085163879E-1,9.898166656E0,9.914262775E0
1.206731067E1,5.188211060E-1,2.201921082E-1,9.877060547E0,9.893128168E0
1.207734167E1,5.028044128E-1,2.447410583E-1,9.885592804E0,9.901396646E0
1.208737267E1,4.948709106E-1,2.480342102E-1,9.882599030E0,9.898089804E0
1.209740467E1,4.876858521E-1,2.662962341E-1,9.824669495E0,9.840370006E0
1.210743567E1,4.653822327E-1,2.751278687E-1,9.779912567E0,9.794843837E0
1.211746767E1,4.719685364E-1,2.917433167E-1,9.849218445E0,9.864835145E0
1.212749867E1,4.796026611E-1,2.987786865E-1,9.832303619E0,9.848526889E0
1.213753067E1,4.728666687E-1,3.041674805E-1,9.732161865E0,9.748389370E0
1.214756167E1,4.800517273E-1,2.829116821E-1,9.824370117E0,9.840159393E0
1.215759367E1,5.287005615E-1,2.498304749E-1,9.893077240E0,9.910343931E0
1.216762467E1,5.439688110E-1,2.462379456E-1,9.880204010E0,9.898230472E0
1.217765567E1,5.153782654E-1,2.335144043E-1,9.886341248E0,9.902519225E0
1.218768767E1,4.945715332E-1,2.257305908E-1,9.862989807E0,9.877961492E0
1.219771867E1,4.939727783E-1,2.273771667E-1,9.849517822E0,9.864517769E0
1.220775067E1,4.899311829E-1,2.435435486E-1,9.827812958E0,9.843030710E0
1.221778167E1,4.855902100E-1,2.519261169E-1,9.822573853E0,9.837795572E0
1.222781367E1,4.805007935E-1,2.942880249E-1,9.833201752E0,9.849332117E0
1.223784467E1,4.860392761E-1,2.986289978E-1,9.839488678E0,9.856010902E0
1.224787667E1,5.046006775E-1,2.999761963E-1,9.861792297E0,9.879248700E0
1.225790767E1,5.008584595E-1,2.885998535E-1,9.879904633E0,9.896800727E0
1.226793967E1,5.111869812E-1,2.725831604E-1,9.909842377E0,9.926761287E0
1.227797067E1,5.077441406E-1,2.779719543E-1,9.890682220E0,9.907606538E0
1.228800167E1,5.072950745E-1,2.803669739E-1,9.867480469E0,9.884489098E0
1.229803367E1,4.808001709E-1,2.706372070E-1,9.861492920E0,9.876915303E0
1.230806467E1,4.598437500E-1,2.649490356E-1,9.836644592E0,9.850950771E0
1.231809667E1,4.561015320E-1,2.691403198E-1,9.798923035E0,9.813223617E0
1.232812767E1,4.432283020E-1,2.583627319E-1,9.792187042E0,9.805617252E0
1.233815967E1,4.421804810E-1,2.646496582E-1,9.824519806E0,9.838025840E0
1.234819067E1,4.694238281E-1,2.706372070E-1,9.845476227E0,9.860375518E0
1.235822267E1,4.989125061E-1,2.902464294E-1,9.854607239E0,9.871496366E0
1.236825367E1,5.071453857E-1,3.026705933E-1,9.860295410E0,9.877966972E0
1.237828567E1,5.114863586E-1,3.013233948E-1,9.857301636E0,9.875161245E0
1.238831667E1,5.237608337E-1,3.049159241E-1,9.852212219E0,9.870835058E0
1.239834767E1,5.183720398E-1,3.218307495E-1,9.833800507E0,9.852711150E0
1.240837967E1,4.896318054E-1,3.067121887E-1,9.806257782E0,9.823263376E0
1.241841067E1,4.676275635E-1,3.002755737E-1,9.811047821E0,9.826774664E0
1.242844267E1,4.623884583E-1,3.100053406E-1,9.826016693E0,9.841773745E0
1.243847367E1,4.770579529E-1,3.065625000E-1,9.867630157E0,9.883910652E0
1.244850567E1,4.791535950E-1,3.047662354E-1,9.886790314E0,9.903085041E0
1.245853667E1,4.761598206E-1,2.891986084E-1,9.892478485E0,9.908152935E0
1.246856867E1,4.812492371E-1,2.878514099E-1,9.888885956E0,9.904772825E0
1.247859967E1,4.784051514E-1,2.883004761E-1,9.893825684E0,9.909579977E0
1.248863167E1,4.800517273E-1,2.721340942E-1,9.869276733E0,9.884691693E0
1.249866267E1,4.834945679E-1,2.954855347E-1,9.861492920E0,9.877758921E0
1.250869467E1,4.816983032E-1,2.903961182E-1,9.847871246E0,9.863920683E0
1.251872567E1,4.959187317E-1,2.939886475E-1,9.838889923E0,9.855765806E0
1.252875667E1,4.897814941E-1,3.053649902E-1,9.817933502E0,9.834884440E0
1.253878867E1,4.971162415E-1,3.104544067E-1,9.823621674E0,9.841089842E0
1.254881967E1,4.891827393E-1,3.159928894E-1,9.829758911E0,9.846995050E0
1.255885167E1,4.845423889E-1,3.276686096E-1,9.846224670E0,9.863583948E0
1.256888267E1,4.701722717E-1,3.326083374E-1,9.843979340E0,9.860812315E0
1.257891458E1,4.755610657E-1,3.417393494E-1,9.835297394E0,9.852716323E0
1.258894558E1,4.661306763E-1,3.447331238E-1,9.858199768E0,9.875232726E0
1.259897758E1,4.650828552E-1,3.317102051E-1,9.836943970E0,9.853517158E0
1.260900858E1,4.764591980E-1,3.415896606E-1,9.834249573E0,9.851708559E0
1.261904058E1,4.610412598E-1,3.448828125E-1,9.820328522E0,9.837192459E0
1.262907158E1,4.671784973E-1,3.456312561E-1,9.824519806E0,9.841692239E0
1.263910258E1,4.474195862E-1,3.435356140E-1,9.834399261E0,9.850563935E0
1.264913458E1,4.438270569E-1,3.381468201E-1,9.839937744E0,9.855744545E0
1.265916558E1,4.516108704E-1,3.387455750E-1,9.867181091E0,9.883317441E0
1.266919758E1,4.456233215E-1,3.186872864E-1,9.883197784E0,9.898370582E0
1.267922858E1,4.544549561E-1,3.126997375E-1,9.870174866E0,9.885578502E0
1.268926058E1,4.507127380E-1,3.002755737E-1,9.828711090E0,9.843620730E0
1.269929158E1,4.490661621E-1,2.930905151E-1,9.836195526E0,9.850802246E0
1.270932358E1,4.465214539E-1,2.787203979E-1,9.852661285E0,9.866711756E0
1.271935458E1,4.590953064E-1,2.984793091E-1,9.879006500E0,9.894171407E0
1.272938658E1,4.740641785E-1,3.011737061E-1,9.939630432E0,9.955485703E0
1.273941758E1,4.704716492E-1,3.209326172E-1,9.933044128E0,9.949357114E0
1.274944958E1,4.565505981E-1,3.375480652E-1,9.854906616E0,9.871249240E0
1.275948058E1,4.165837097E-1,3.585044861E-1,9.777966614E0,9.793400766E0
1.276951158E1,4.092489624E-1,3.680845642E-1,9.735604706E0,9.751152237E0
1.277954358E1,4.099974060E-1,3.743714905E-1,9.758058014E0,9.773839987E0
1.278957458E1,4.444258118E-1,3.800596619E-1,9.807305603E0,9.824724059E0
1.279960658E1,4.616400146E-1,3.724255371E-1,9.777517548E0,9.795491906E0
1.280963758E1,4.388873291E-1,3.653901672E-1,9.769434357E0,9.786111573E0
1.281966958E1,4.340972900E-1,3.504212952E-1,9.877210236E0,9.892952925E0
1.282970058E1,4.802014160E-1,3.171903992E-1,1.001657043E1,1.003308958E1
1.283973258E1,5.294490051E-1,3.143463135E-1,9.989626465E0,1.000858465E1
1.284976358E1,4.948709106E-1,3.270698547E-1,9.935738525E0,9.953430160E0
1.285979558E1,4.357438660E-1,3.095562744E-1,9.885742493E0,9.900181940E0
1.286982658E1,4.185296631E-1,3.052153015E-1,9.782606964E0,9.796311677E0
1.287985858E1,4.099974060E-1,3.203338623E-1,9.743538208E0,9.757420175E0
1.288988958E1,4.194277954E-1,3.150947571E-1,9.770482178E0,9.784555502E0
1.289992158E1,4.417314148E-1,3.059637451E-1,9.843829651E0,9.858484805E0
1.290995258E1,4.872367859E-1,3.194357300E-1,9.904154205E0,9.921275593E0
1.291998358E1,4.915777588E-1,3.647914124E-1,9.913285217E0,9.932167199E0
1.293001558E1,4.827461243E-1,3.748205566E-1,9.882299652E0,9.901180772E0
1.294004658E1,4.546046448E-1,3.854484558E-1,9.818831635E0,9.836904521E0
1.295007858E1,4.323010254E-1,4.022135925E-1,9.792187042E0,9.809973854E0
1.296010958E1,4.245172119E-1,4.055067444E-1,9.800270233E0,9.817838216E0
1.297014158E1,4.246669006E-1,4.119433594E-1,9.825567627E0,9.843364186E0
1.298017258E1,4.426295471E-1,4.020639038E-1,9.868677979E0,9.886778107E0
1.299020458E1,4.544549561E-1,3.749702454E-1,9.902507629E0,9.920019624E0
1.300023558E1,4.519102478E-1,3.800596619E-1,9.906249847E0,9.923832640E0
1.301026758E1,4.424798584E-1,3.682342529E-1,9.899064789E0,9.915788853E0
1.302029858E1,4.300556946E-1,3.592529297E-1,9.870174866E0,9.886069110E0
1.303033058E1,4.263134766E-1,3.546125793E-1,9.824220428E0,9.839857737E0
1.304036158E1,4.134402466E-1,3.553610229E-1,9.809700623E0,9.824837943E0
1.305039258E1,4.168830872E-1,3.608995056E-1,9.789941711E0,9.805457596E0
1.306042458E1,4.334985352E-1,3.523672485E-1,9.820927277E0,9.836803151E0
1.307045558E1,4.546046448E-1,3.474275208E-1,9.856702881E0,9.873295445E0
1.308048758E1,4.617897034E-1,3.504212952E-1,9.879904633E0,9.896896502E0
1.309051858E1,4.770579529E-1,3.565585327E-1,9.872869263E0,9.890817244E0
1.310055058E1,4.574487305E-1,3.608995056E-1,9.871671753E0,9.888852865E0
1.311058158E1,4.647834778E-1,3.626957703E-1,9.837692413E0,9.855341898E0
1.312061358E1,4.517605591E-1,3.839515686E-1,9.838440857E0,9.856288597E0
1.313064458E1,4.508624268E-1,4.013154602E-1,9.843380585E0,9.861869618E0
1.314067658E1,4.537065125E-1,4.210743713E-1,9.797875214E0,9.817408616E0
1.315070758E1,4.281097412E-1,4.168830872E-1,9.848919067E0,9.867029758E0
1.316073958E1,4.393363953E-1,4.418811035E-1,9.881102142E0,9.900730020E0
1.317077058E1,4.373904419E-1,4.459226990E-1,9.829010468E0,9.848837709E0
1.318080258E1,4.198768616E-1,4.323010254E-1,9.777367859E0,9.795922774E0
1.319083358E1,4.397854614E-1,4.037104797E-1,9.819879456E0,9.838009246E0
1.320086458E1,4.778063965E-1,3.999682617E-1,9.856403503E0,9.876080376E0
1.321089658E1,4.864883423E-1,3.903881836E-1,9.836045837E0,9.855803953E0
1.322092758E1,4.605921936E-1,3.761677551E-1,9.856702881E0,9.874626020E0
1.323095958E1,4.572990417E-1,3.582051086E-1,9.875264282E0,9.892334303E0
1.324099058E1,4.692741394E-1,3.477268982E-1,9.907597046E0,9.924797803E0
1.325102258E1,4.810995483E-1,3.691323853E-1,9.902807007E0,9.921355860E0
1.326105358E1,4.751119995E-1,3.882925415E-1,9.886191559E0,9.905215093E0
1.327108558E1,4.623884583E-1,4.058061218E-1,9.861193542E0,9.880365367E0
1.328111658E1,4.438270569E-1,4.171824646E-1,9.864786072E0,9.883573640E0
1.329114858E1,4.373904419E-1,4.261637878E-1,9.858499146E0,9.877394969E0
1.330117958E1,4.412823486E-1,4.236190796E-1,9.829160156E0,9.848176106E0
1.331121158E1,4.517605591E-1,4.177812195E-1,9.806407471E0,9.825693677E0
1.332124258E1,4.465214539E-1,4.073030090E-1,9.808952179E0,9.827554121E0
1.333127458E1,4.376898193E-1,4.152365112E-1,9.832602997E0,9.851095139E0
1.334130558E1,4.355941772E-1,4.117936707E-1,9.840536499E0,9.858776542E0
1.335133758E1,4.276606750E-1,4.189787292E-1,9.817783813E0,9.836021342E0
1.336136858E1,4.071533203E-1,4.073030090E-1,9.800270233E0,9.817177100E0
1.337139958E1,3.920347595E-1,4.052073669E-1,9.796228638E0,9.812440053E0
1.338143158E1,4.004173279E-1,4.085005188E-1,9.832453308E0,9.849078371E0
1.339146258E1,4.128414917E-1,4.122427368E-1,9.860594788E0,9.877839427E0
1.340149458E1,4.372407532E-1,4.156855774E-1,9.856553192E0,9.874999484E0
1.341152558E1,4.453239441E-1,4.155358887E-1,9.865085449E0,9.883870417E0
1.342155758E1,4.454736328E-1,3.981719971E-1,9.868827667E0,9.886897755E0
1.343158858E1,4.372407532E-1,4.068539429E-1,9.872420197E0,9.890469662E0
1.344162058E1,4.565505981E-1,4.082011414E-1,9.850715332E0,9.869734504E0
1.345165158E1,4.454736328E-1,4.122427368E-1,9.840536499E0,9.859236756E0
1.346168358E1,4.366419983E-1,4.052073669E-1,9.839937744E0,9.857952326E0
1.347171458E1,4.352947998E-1,4.107458496E-1,9.851014709E0,9.869178513E0
1.348174658E1,4.345463562E-1,4.333488464E-1,9.855804749E0,9.874892860E0
1.349177758E1,4.468208313E-1,4.334985352E-1,9.845326538E0,9.864989837E0
1.350180958E1,4.489164734E-1,4.391867065E-1,9.857151947E0,9.877138020E0
1.351184058E1,4.665797424E-1,4.204756165E-1,9.854457550E0,9.874453403E0
1.352187158E1,4.504133606E-1,4.285588074E-1,9.877509613E0,9.897056684E0
1.353190358E1,4.463717651E-1,4.321513367E-1,9.859696655E0,9.879252030E0
1.354193458E1,4.409829712E-1,4.474195862E-1,9.845625916E0,9.865647467E0
1.355196658E1,4.445755005E-1,4.553530884E-1,9.846074982E0,9.866619804E0
1.356199758E1,4.547543335E-1,4.363426208E-1,9.825567627E0,9.845759269E0
1.357202958E1,4.468208313E-1,4.378395081E-1,9.829160156E0,9.849047754E0
1.358206042E1,4.397854614E-1,4.468208313E-1,9.832602997E0,9.852570314E0
1.359209242E1,4.354444885E-1,4.354444885E-1,9.845775604E0,9.865015005E0
1.360212342E1,4.441264343E-1,4.387376404E-1,9.838141479E0,9.857929132E0
1.361215542E1,4.378395081E-1,4.432283020E-1,9.835896149E0,9.855607937E0
1.362218642E1,4.397854614E-1,4.384382629E-1,9.856702881E0,9.876245797E0
1.363221842E1,4.468208313E-1,4.466711426E-1,9.853858795E0,9.874092218E0
1.364224942E1,4.369413757E-1,4.510121155E-1,9.846973114E0,9.866975687E0
1.365228142E1,4.417314148E-1,4.390370178E-1,9.850565643E0,9.870234224E0
1.366231242E1,4.426295471E-1,4.357438660E-1,9.854008484E0,9.873564545E0
1.367234442E1,4.263134766E-1,4.291575623E-1,9.856852570E0,9.875396801E0
1.368237542E1,4.288581848E-1,4.430786133E-1,9.844877472E0,9.864170033E0
1.369240642E1,4.216731262E-1,4.584965515E-1,9.830657043E0,9.850372847E0
1.370243842E1,4.308041382E-1,4.507127380E-1,9.829758911E0,9.849512395E0
1.371246942E1,4.236190796E-1,4.487667847E-1,9.847272491E0,9.866591117E0
1.372250142E1,4.303550720E-1,4.489164734E-1,9.848170624E0,9.867785776E0
1.373253242E1,4.364923096E-1,4.619393921E-1,9.831555176E0,9.852075452E0
1.374256442E1,4.312532043E-1,4.691244507E-1,9.849817200E0,9.870408094E0
1.375259542E1,4.239184570E-1,4.652325439E-1,9.847422180E0,9.867515988E0
1.376262742E1,4.287084961E-1,4.510121155E-1,9.865983582E0,9.885587233E0
1.377265842E1,4.415817261E-1,4.552033997E-1,9.915380859E0,9.935642010E0
1.378269042E1,4.538562012E-1,4.567002869E-1,9.921518097E0,9.942388141E0
1.379272142E1,4.279600525E-1,4.664300537E-1,9.849068756E0,9.869390162E0
1.380275342E1,3.963757324E-1,4.825964355E-1,9.781858521E0,9.801773776E0
1.381278442E1,3.812571716E-1,4.878355408E-1,9.773625641E0,9.793216975E0
1.382281642E1,3.909869385E-1,4.939727783E-1,9.787546692E0,9.807800474E0
1.383284742E1,4.185296631E-1,4.778063965E-1,9.787846069E0,9.808434978E0
1.384287942E1,4.388873291E-1,4.860392761E-1,9.709409180E0,9.731468691E0
1.385291042E1,3.936813354E-1,4.806504822E-1,9.757608948E0,9.777368882E0
1.386294142E1,4.044589233E-1,4.790039062E-1,9.876312103E0,9.896189798E0
1.387297342E1,4.773573303E-1,4.514611816E-1,1.002136047E1,1.004287573E1
1.388300442E1,5.279521179E-1,4.445755005E-1,9.947414246E0,9.971330452E0
1.389303642E1,4.592449951E-1,4.540058899E-1,9.905052338E0,9.926081257E0
1.390306742E1,4.149371338E-1,4.454736328E-1,9.847122803E0,9.865923529E0
1.391309942E1,3.929328918E-1,4.402345276E-1,9.756561127E0,9.774389378E0
1.392313042E1,3.899391174E-1,4.182302856E-1,9.729766846E0,9.746554876E0
1.393316242E1,4.308041382E-1,4.206253052E-1,9.750124512E0,9.768697244E0
1.394319342E1,4.378395081E-1,4.320016479E-1,9.829758911E0,9.848984166E0
1.395322542E1,4.653822327E-1,4.339476013E-1,9.896220703E0,9.916656460E0
1.396325642E1,4.894821167E-1,4.580474854E-1,9.919871521E0,9.942497233E0
1.397328842E1,4.629872131E-1,4.679269409E-1,9.903555450E0,9.925407969E0
1.398331942E1,4.311035156E-1,4.840933228E-1,9.882449341E0,9.903686261E0
1.399335142E1,4.270619202E-1,4.960684204E-1,9.854756927E0,9.876472035E0
1.400338242E1,4.132905579E-1,5.191204834E-1,9.811796265E0,9.834207701E0
1.401341442E1,4.207749939E-1,5.433700562E-1,9.806706848E0,9.830757947E0
1.402344542E1,4.216731262E-1,5.348377991E-1,9.805958405E0,9.829581880E0
1.403347742E1,4.161346436E-1,5.289999390E-1,9.829309845E0,9.852326680E0
1.404350842E1,4.252656555E-1,5.318440247E-1,9.844129028E0,9.867653484E0
1.405354042E1,4.281097412E-1,5.298980713E-1,9.858349457E0,9.881858324E0
1.406357142E1,4.195774841E-1,4.930746460E-1,9.870923309E0,9.892132978E0
1.407360242E1,4.137396240E-1,4.679269409E-1,9.840686188E0,9.860488869E0
1.408363442E1,4.025129700E-1,4.571493530E-1,9.843679962E0,9.862506650E0
1.409366542E1,4.005670166E-1,4.532574463E-1,9.844278717E0,9.862845416E0
1.410369742E1,4.023632813E-1,4.508624268E-1,9.837991791E0,9.856533651E0
1.411372842E1,4.111949158E-1,4.309538269E-1,9.852361908E0,9.870351444E0
1.412376042E1,4.290078735E-1,4.305047607E-1,9.867779846E0,9.886478706E0
1.413379142E1,4.236190796E-1,4.299060059E-1,9.862989807E0,9.881439178E0
1.414382342E1,4.324507141E-1,4.424798584E-1,9.848170624E0,9.867586670E0
1.415385442E1,4.357438660E-1,4.438270569E-1,9.834848328E0,9.854496273E0
1.416388642E1,4.396357727E-1,4.544549561E-1,9.854457550E0,9.874722402E0
1.417391742E1,4.281097412E-1,4.799020386E-1,9.877509613E0,9.898423110E0
1.418394942E1,4.349954224E-1,4.869374084E-1,9.834698639E0,9.856349546E0
1.419398042E1,4.137396240E-1,4.987628174E-1,9.822573853E0,9.843927159E0
1.420401242E1,4.028123474E-1,5.114863586E-1,9.838590546E0,9.860108519E0
1.421404342E1,3.724255371E-1,5.156776428E-1,9.773775330E0,9.794452941E0
1.422407542E1,3.713777161E-1,5.123844910E-1,9.775571594E0,9.796032833E0
1.423410642E1,3.812571716E-1,4.899311829E-1,9.864037628E0,9.883553406E0
1.424413742E1,4.089495850E-1,4.764591980E-1,9.870324554E0,9.890276030E0
1.425416942E1,4.385879517E-1,4.808001709E-1,9.871671753E0,9.893100191E0
1.426420042E1,4.053570557E-1,4.821473694E-1,9.845775604E0,9.865904808E0
1.427423242E1,3.936813354E-1,4.502636719E-1,9.834848328E0,9.853018015E0
1.428426342E1,4.068539429E-1,4.415817261E-1,9.842332764E0,9.860630750E0
1.429429542E1,4.028123474E-1,4.429289246E-1,9.855804749E0,9.873972405E0
1.430432642E1,4.180805969E-1,4.519102478E-1,9.864935760E0,9.884127266E0
1.431435842E1,4.306544495E-1,4.613406372E-1,9.879455566E0,9.899592958E0
1.432438942E1,4.360432434E-1,4.659809875E-1,9.915380859E0,9.935897019E0
1.433442142E1,4.147874451E-1,4.483177185E-1,9.902058563E0,9.920877037E0
1.434445242E1,4.095483398E-1,4.727169800E-1,9.835746460E0,9.855612594E0
1.435448442E1,3.908372498E-1,4.746629333E-1,9.795480194E0,9.814758830E0
1.436451542E1,3.829037476E-1,4.418811035E-1,9.787097626E0,9.804547625E0
1.437454742E1,3.848497009E-1,4.288581848E-1,9.798174591E0,9.815103359E0
1.438457842E1,4.034111023E-1,4.315525818E-1,9.818382568E0,9.836138186E0
1.439461042E1,3.969744873E-1,4.254153442E-1,9.829010468E0,9.846218245E0
1.440464142E1,3.830534363E-1,4.336482239E-1,9.801467743E0,9.818530981E0
1.441467342E1,3.622467041E-1,4.266128540E-1,9.810748444E0,9.826698643E0
1.442470442E1,3.619473267E-1,4.447251892E-1,9.837692413E0,9.854388788E0
1.443473542E1,3.855981445E-1,4.300556946E-1,9.853858795E0,9.870773373E0
1.444476742E1,4.140390015E-1,4.357438660E-1,9.843230896E0,9.861566584E0
1.445479842E1,4.116439819E-1,4.644841003E-1,9.825867004E0,9.845448625E0
1.446483042E1,4.143383789E-1,4.558021545E-1,9.825717316E0,9.845006484E0
1.447486142E1,4.096980286E-1,4.351451111E-1,9.829160156E0,9.847314005E0
1.448489342E1,4.141886902E-1,4.354444885E-1,9.821675720E0,9.840044620E0
1.449492442E1,3.968247986E-1,4.297563171E-1,9.847272491E0,9.864630552E0
1.450495642E1,4.011657715E-1,4.351451111E-1,9.874815216E0,9.892535610E0
1.451498742E1,3.833528137E-1,4.201762390E-1,9.886041870E0,9.902390182E0
1.452501942E1,3.803590393E-1,4.201762390E-1,9.900561676E0,9.916770773E0
1.453505042E1,3.893403625E-1,4.282594299E-1,9.892927551E0,9.909843974E0
1.454508242E1,3.706292725E-1,4.315525818E-1,9.877659302E0,9.894026328E0
1.455511342E1,3.692820740E-1,4.369413757E-1,9.851463776E0,9.868060880E0
1.456514542E1,3.854484558E-1,4.323010254E-1,9.825717316E0,9.842772752E0
1.457517642E1,3.948788452E-1,4.224215698E-1,9.809101868E0,9.826130914E0
1.458520829E1,4.001179504E-1,4.261637878E-1,9.790540466E0,9.807975967E0
1.459523929E1,3.953279114E-1,4.168830872E-1,9.798324280E0,9.815153303E0
1.460527129E1,4.185296631E-1,4.062551880E-1,9.808802490E0,9.826129281E0
1.461530229E1,4.275109863E-1,3.963757324E-1,9.828860779E0,9.846135464E0
1.462533429E1,4.234693909E-1,3.876937866E-1,9.843829651E0,9.860558554E0
1.463536529E1,4.195774841E-1,3.712280273E-1,9.843230896E0,9.859160714E0
1.464539629E1,4.079017639E-1,3.782633972E-1,9.845775604E0,9.861478809E0
1.465542829E1,3.932322693E-1,3.679348755E-1,9.840835876E0,9.855559773E0
1.466545929E1,3.839515686E-1,3.661386108E-1,9.834698639E0,9.848998609E0
1.467549129E1,3.971241760E-1,3.632945251E-1,9.843530273E0,9.858234059E0
1.468552229E1,4.023632813E-1,3.829037476E-1,9.843530273E0,9.859188594E0
1.469555429E1,3.835025024E-1,3.655398560E-1,9.852361908E0,9.866596613E0
1.470558529E1,3.743714905E-1,3.637435913E-1,9.853409729E0,9.867225887E0
1.471561729E1,3.736230469E-1,3.817062378E-1,9.844278717E0,9.858758405E0
1.472564829E1,3.749702454E-1,3.736230469E-1,9.890233154E0,9.904388356E0
1.473568029E1,3.817062378E-1,3.606001282E-1,9.880653076E0,9.894596370E0
1.474571129E1,3.528163147E-1,3.710783386E-1,9.866732025E0,9.880009076E0
1.475574329E1,3.357518005E-1,3.558100891E-1,9.895322571E0,9.907408282E0
1.476577429E1,3.251239014E-1,3.463796997E-1,9.948013000E0,9.959349733E0
1.477580629E1,3.484753418E-1,3.442840576E-1,9.885143738E0,9.897274033E0
1.478583729E1,3.532653809E-1,3.553610229E-1,9.810598755E0,9.823386677E0
1.479586929E1,3.185375977E-1,3.676354980E-1,9.781409454E0,9.793497484E0
1.480590029E1,2.980302429E-1,3.674858093E-1,9.806557159E0,9.817964716E0
1.481593229E1,3.206332397E-1,3.737727356E-1,9.820328522E0,9.832668204E0
1.482596329E1,3.399430847E-1,3.637435913E-1,9.800868988E0,9.813506184E0
1.483599429E1,3.597019958E-1,3.658392334E-1,9.744436340E0,9.757933360E0
1.484602629E1,3.544628906E-1,3.598516846E-1,9.856852570E0,9.869786206E0
1.485605729E1,3.827540588E-1,3.454815674E-1,9.969568176E0,9.982892757E0
1.486608929E1,4.412823486E-1,3.315605164E-1,1.007210495E1,1.008721768E1
1.487612029E1,4.740641785E-1,3.150947571E-1,1.000339783E1,1.001958031E1
1.488615229E1,4.134402466E-1,3.177891541E-1,9.962233429E0,9.975871775E0
1.489618329E1,3.481759644E-1,3.170407104E-1,9.859996033E0,9.871234121E0
1.490621529E1,3.276686096E-1,3.032693481E-1,9.766889648E0,9.777089159E0
1.491624629E1,3.131488037E-1,2.909948730E-1,9.751022644E0,9.760388455E0
1.492627829E1,3.436853027E-1,2.818638611E-1,9.811796265E0,9.821858926E0
1.493630929E1,3.950285339E-1,2.791694641E-1,9.879156189E0,9.890991363E0
1.494634129E1,4.215234375E-1,3.049159241E-1,9.930349731E0,9.943968097E0
1.495637229E1,4.224215698E-1,3.227288818E-1,9.916428680E0,9.930667233E0
1.496640429E1,3.906875610E-1,3.379971313E-1,9.895771637E0,9.909246950E0
1.497643529E1,3.640429688E-1,3.390449524E-1,9.852062531E0,9.864614279E0
1.498646729E1,3.588038635E-1,3.647914124E-1,9.820328522E0,9.833649641E0
1.499649829E1,3.688330078E-1,3.802093506E-1,9.831106110E0,9.845366640E0
1.500653029E1,3.582051086E-1,3.788621521E-1,9.868677979E0,9.882441625E0
1.501656129E1,3.608995056E-1,3.757186890E-1,9.894574127E0,9.908279878E0
1.502659229E1,3.718267822E-1,3.785627747E-1,9.913584595E0,9.927775403E0
1.503662429E1,3.610491943E-1,3.739224243E-1,9.910141754E0,9.923763605E0
1.504665529E1,3.571572876E-1,3.565585327E-1,9.882000275E0,9.894878713E0
1.505668729E1,3.411405945E-1,3.209326172E-1,9.851014709E0,9.862143046E0
1.506671829E1,3.362008667E-1,2.945874023E-1,9.858050079E0,9.868179372E0
1.507675029E1,3.456312561E-1,2.677931213E-1,9.861642609E0,9.871330663E0
1.508678129E1,3.659889221E-1,2.621049500E-1,9.892628174E0,9.902865196E0
1.509681329E1,3.802093506E-1,2.580633545E-1,9.896370392E0,9.907032996E0
1.510684429E1,3.960763550E-1,2.631527710E-1,9.889185333E0,9.900611719E0
1.511687629E1,3.935316467E-1,2.661465454E-1,9.870623932E0,9.882050291E0
1.512690729E1,3.950285339E-1,2.866539001E-1,9.865983582E0,9.878048898E0
1.513693929E1,4.011657715E-1,2.998265076E-1,9.881551208E0,9.894234897E0
1.514697029E1,4.020639038E-1,3.068618774E-1,9.890382843E0,9.903307143E0
1.515700229E1,4.239184570E-1,3.191363525E-1,9.902507629E0,9.916713781E0
1.516703329E1,4.185296631E-1,3.367996216E-1,9.897418213E0,9.911987104E0
1.517706529E1,3.872447205E-1,3.614982605E-1,9.828711090E0,9.842977251E0
1.518709629E1,3.568579102E-1,3.899391174E-1,9.823022919E0,9.837234334E0
1.519712829E1,3.492237854E-1,3.950285339E-1,9.820478210E0,9.834622366E0
1.520715929E1,3.306623840E-1,3.938310242E-1,9.794582062E0,9.808072097E0
1.521719129E1,3.402424622E-1,3.625460815E-1,9.826166382E0,9.838737234E0
1.522722229E1,3.606001282E-1,3.549119568E-1,9.877210236E0,9.890160615E0
1.523725329E1,4.044589233E-1,3.299139404E-1,9.863588562E0,9.877388802E0
1.524728529E1,3.748205566E-1,3.050656128E-1,9.850415955E0,9.862263937E0
1.525731629E1,3.550616455E-1,2.718347168E-1,9.859846344E0,9.869981399E0
1.526734829E1,3.709286499E-1,2.636018372E-1,9.844877472E0,9.855388700E0
1.527737929E1,3.930825806E-1,2.680924988E-1,9.856253815E0,9.867731592E0
1.528741129E1,4.032614136E-1,2.662962341E-1,9.849368134E0,9.861216258E0
1.529744229E1,3.849993896E-1,2.851570129E-1,9.889484711E0,9.901083117E0
1.530747429E1,3.900888062E-1,2.987786865E-1,9.916129303E0,9.928295842E0
1.531750529E1,4.023632813E-1,3.062631226E-1,9.915231171E0,9.928116764E0
1.532753729E1,4.059558105E-1,3.291654968E-1,9.892777863E0,9.906573771E0
1.533756829E1,3.781137085E-1,3.279679871E-1,9.864636383E0,9.877326761E0
1.534760029E1,3.808081055E-1,3.354524231E-1,9.841734009E0,9.854809559E0
1.535763129E1,3.686833191E-1,3.285667419E-1,9.834998016E0,9.847388967E0
1.536766329E1,3.668870544E-1,3.249742126E-1,9.854906616E0,9.867086640E0
1.537769429E1,3.773652649E-1,3.147953796E-1,9.843230896E0,9.855490609E0
1.538772629E1,3.721261597E-1,3.204835510E-1,9.832303619E0,9.844561039E0
1.539775729E1,3.535647583E-1,3.161425781E-1,9.803862762E0,9.815328789E0
1.540778929E1,3.363505554E-1,3.159928894E-1,9.799821167E0,9.810681837E0
1.541782029E1,3.499722290E-1,3.222798157E-1,9.808054047E0,9.819585990E0
1.542785229E1,3.537144470E-1,3.143463135E-1,9.810598755E0,9.822004655E0
1.543788329E1,3.713777161E-1,3.164419556E-1,9.854008484E0,9.866080281E0
1.544791429E1,3.794609070E-1,3.158432007E-1,9.871971130E0,9.884308853E0
1.545794629E1,3.911366272E-1,3.191363525E-1,9.875413971E0,9.888308094E0
1.546797729E1,3.773652649E-1,3.068618774E-1,9.866432648E0,9.878413939E0
1.547800929E1,3.607498169E-1,2.953358459E-1,9.849368134E0,9.860396357E0
1.548804029E1,3.553610229E-1,2.981799316E-1,9.852511597E0,9.863426255E0
1.549807229E1,3.568579102E-1,3.064128113E-1,9.859696655E0,9.870909508E0
1.550810329E1,3.510200500E-1,2.927911377E-1,9.871222687E0,9.881800396E0
1.551813529E1,3.576063538E-1,2.971321106E-1,9.878856812E0,9.889791792E0
1.552816629E1,3.607498169E-1,3.017724609E-1,9.882299652E0,9.893485405E0
1.553819829E1,3.751199341E-1,2.993774414E-1,9.872569885E0,9.884228749E0
1.554822929E1,3.852987671E-1,2.881507874E-1,9.886790314E0,9.898490224E0
1.555826129E1,3.951782227E-1,2.808160400E-1,9.888736267E0,9.900612528E0
1.556829229E1,3.966751099E-1,2.948867798E-1,9.872420197E0,9.884785779E0
1.557832429E1,4.080514526E-1,3.013233948E-1,9.851014709E0,9.864065723E0
1.558835567E1,4.128414917E-1,2.868035889E-1,9.850266266E0,9.863084705E0
1.559838767E1,4.228706360E-1,2.779719543E-1,9.855205994E0,9.868189964E0
1.560841867E1,4.104464722E-1,2.854563904E-1,9.840386810E0,9.853078922E0
1.561845067E1,4.095483398E-1,2.918930054E-1,9.843530273E0,9.856369495E0
1.562848167E1,4.108955383E-1,3.064128113E-1,9.840536499E0,9.853876524E0
1.563851367E1,3.945794678E-1,2.959346008E-1,9.829758911E0,9.842125304E0
1.564854467E1,3.736230469E-1,2.983296204E-1,9.817634125E0,9.829269279E0
1.565857667E1,3.695814514E-1,3.043171692E-1,9.830806732E0,9.842457030E0
1.566860767E1,3.622467041E-1,3.011737061E-1,9.827663269E0,9.838947790E0
1.567863867E1,3.670367432E-1,2.993774414E-1,9.853858795E0,9.865235728E0
1.568867067E1,3.682342529E-1,2.862048340E-1,9.902058563E0,9.913035532E0
1.569870167E1,3.835025024E-1,2.860551453E-1,9.945767670E0,9.957268514E0
1.570873367E1,3.749702454E-1,2.942880249E-1,9.918524323E0,9.929971443E0
1.571876467E1,3.558100891E-1,3.037184143E-1,9.864935760E0,9.876021631E0
1.572879667E1,3.284170532E-1,2.939886475E-1,9.823172607E0,9.833056857E0
1.573882767E1,3.070115662E-1,2.942880249E-1,9.820029144E0,9.829233639E0
1.574885967E1,3.070115662E-1,2.746788025E-1,9.810000000E0,9.818645759E0
1.575889067E1,3.329077148E-1,2.664459229E-1,9.732910309E0,9.742246356E0
1.576892267E1,3.215313721E-1,2.567161560E-1,9.776619415E0,9.785273261E0
1.577895367E1,3.484753418E-1,2.460882568E-1,9.881850586E0,9.891054822E0
1.578898567E1,4.170327759E-1,2.300715637E-1,1.002749771E1,1.003880270E1
1.579901667E1,4.704716492E-1,2.276765442E-1,9.971364441E0,9.985053280E0
1.580904867E1,4.587959290E-1,2.194436646E-1,9.951755219E0,9.964741901E0
1.581907967E1,4.099974060E-1,2.230361938E-1,9.914333038E0,9.925313225E0
1.582911167E1,3.803590393E-1,2.269281006E-1,9.806856537E0,9.816853085E0
1.583914267E1,3.606001282E-1,2.404000854E-1,9.692943420E0,9.702627315E0
1.584917467E1,3.550616455E-1,2.387535095E-1,9.691745911E0,9.701186052E0
1.585920567E1,3.698808289E-1,2.448907471E-1,9.771080933E0,9.781145429E0
1.586923767E1,4.129911804E-1,2.646496582E-1,9.827214203E0,9.839448163E0
1.587926867E1,4.327500916E-1,2.911445618E-1,9.874665527E0,9.888430466E0
1.588929967E1,4.237687683E-1,3.140469360E-1,9.902357941E0,9.916395425E0
1.589933167E1,4.089495850E-1,3.296145630E-1,9.888586578E0,9.902526447E0
1.590936267E1,3.938310242E-1,3.315605164E-1,9.869875488E0,9.883292842E0
1.591939467E1,3.788621521E-1,3.110531616E-1,9.841734009E0,9.853934184E0
1.592942567E1,3.649411011E-1,3.055146790E-1,9.844278717E0,9.855777224E0
1.593945767E1,3.649411011E-1,2.878514099E-1,9.861792297E0,9.872739628E0
1.594948867E1,3.938310242E-1,2.653981018E-1,9.872120819E0,9.883537246E0
1.595952067E1,3.878434753E-1,2.453398132E-1,9.877808990E0,9.888464220E0
1.596955167E1,3.971241760E-1,2.212399292E-1,9.870923309E0,9.881385616E0
1.597958367E1,3.797602844E-1,2.115101624E-1,9.867031403E0,9.876601800E0
1.598961467E1,3.841012573E-1,2.155517578E-1,9.878407745E0,9.888222081E0
1.599964667E1,3.933819580E-1,2.032772827E-1,9.888137512E0,9.898047003E0
1.600967767E1,3.989204407E-1,1.919009399E-1,9.890083466E0,9.899985578E0
1.601970967E1,4.182302856E-1,1.896556091E-1,9.883796539E0,9.894459048E0
1.602974067E1,3.962260437E-1,1.948947144E-1,9.876761169E0,9.886626838E0
1.603977267E1,4.061054993E-1,2.049238586E-1,9.848619690E0,9.859118889E0
1.604980367E1,3.990701294E-1,2.037263489E-1,9.840835876E0,9.851031019E0
1.605983567E1,3.932322693E-1,2.167492676E-1,9.848320312E0,9.858550849E0
1.606986667E1,4.189787292E-1,2.302212524E-1,9.847871246E0,9.859468195E0
1.607989867E1,4.119433594E-1,2.498304749E-1,9.891131287E0,9.902857705E0
1.608992967E1,4.167333984E-1,2.565664673E-1,9.871522064E0,9.883645124E0
1.609996167E1,4.085005188E-1,2.769241333E-1,9.873318329E0,9.885644869E0
1.610999267E1,3.984713745E-1,3.035687256E-1,9.883946228E0,9.896632076E0
1.612002467E1,3.921844482E-1,3.110531616E-1,9.807754669E0,9.820520066E0
1.613005567E1,3.637435913E-1,3.044668579E-1,9.798024902E0,9.809500571E0
1.614008667E1,3.516188049E-1,2.868035889E-1,9.787995758E0,9.798507695E0
1.615011867E1,3.929328918E-1,2.624043274E-1,9.845625916E0,9.856957033E0
1.616014967E1,4.108955383E-1,2.628533936E-1,9.911788330E0,9.923783298E0
1.617018167E1,4.388873291E-1,2.457888794E-1,9.939630432E0,9.952350847E0
1.618021267E1,4.432283020E-1,2.266287231E-1,9.923613739E0,9.936091865E0
1.619024467E1,4.242178345E-1,2.013313293E-1,9.906100159E0,9.917223171E0
1.620027567E1,4.146377563E-1,2.013313293E-1,9.867181091E0,9.877941155E0
1.621030767E1,4.222718811E-1,2.240840149E-1,9.857301636E0,9.868886600E0
1.622033867E1,4.314028931E-1,2.249821472E-1,9.815688171E0,9.827739298E0
1.623037067E1,4.248165894E-1,2.267784119E-1,9.814041595E0,9.825849074E0
1.624040167E1,4.303550720E-1,2.529739380E-1,9.831405487E0,9.844071066E0
1.625043367E1,4.281097412E-1,2.441423035E-1,9.815837860E0,9.828202089E0
1.626046467E1,4.311035156E-1,2.466870117E-1,9.859546967E0,9.872049995E0
1.627049667E1,4.323010254E-1,2.350112915E-1,9.877509613E0,9.889757866E0
1.628052767E1,4.405339050E-1,2.357597351E-1,9.890831909E0,9.903444281E0
1.629055967E1,4.221221924E-1,2.412982178E-1,9.859696655E0,9.871678181E0
1.630059067E1,3.930825806E-1,2.335144043E-1,9.837991791E0,9.848610327E0
1.631062267E1,3.637435913E-1,2.395019531E-1,9.801467743E0,9.811138594E0
1.632065367E1,3.743714905E-1,2.338137817E-1,9.793384552E0,9.803326164E0
1.633068567E1,3.683839417E-1,2.384541321E-1,9.793683929E0,9.803510188E0
1.634071667E1,3.860472107E-1,2.408491516E-1,9.817334747E0,9.827873743E0
1.635074867E1,4.129911804E-1,2.405497742E-1,9.830058289E0,9.841670177E0
1.636077967E1,4.378395081E-1,2.402503967E-1,9.834848328E0,9.847520770E0
1.637081067E1,4.336482239E-1,2.514770508E-1,9.843829651E0,9.856585295E0
1.638084267E1,4.477189636E-1,2.375559998E-1,9.871072998E0,9.884076449E0
1.639087367E1,4.402345276E-1,2.404000854E-1,9.874815216E0,9.887546419E0
1.640090567E1,4.480183411E-1,2.395019531E-1,9.879754944E0,9.892807456E0
1.641093667E1,4.358935547E-1,2.333647156E-1,9.865983582E0,9.878364962E0
1.642096867E1,4.174818420E-1,2.405497742E-1,9.853559418E0,9.865332659E0
1.643099967E1,4.224215698E-1,2.445913696E-1,9.844877472E0,9.856971003E0
1.644103167E1,4.073030090E-1,2.414479065E-1,9.836345215E0,9.847734766E0
1.645106267E1,4.243675232E-1,2.478845215E-1,9.838291168E0,9.850558748E0
1.646109467E1,4.158352661E-1,2.489323425E-1,9.828411713E0,9.840353808E0
1.647112567E1,4.162843323E-1,2.398013306E-1,9.835746460E0,9.847472049E0
1.648115767E1,4.330494690E-1,2.368075562E-1,9.851014709E0,9.863371658E0
1.649118867E1,4.424798584E-1,2.417472839E-1,9.844428406E0,9.857332337E0
1.650122067E1,4.558021545E-1,2.350112915E-1,9.869426422E0,9.882740704E0
1.651125167E1,4.528083801E-1,2.185455322E-1,9.873617706E0,9.886411087E0
1.652128367E1,4.351451111E-1,2.103126526E-1,9.862989807E0,9.874824080E0
1.653131467E1,4.373904419E-1,2.068698120E-1,9.858349457E0,9.870215779E0
1.654134667E1,4.260140991E-1,2.115101624E-1,9.864935760E0,9.876395199E0
1.655137767E1,4.230203247E-1,2.077679443E-1,9.888436890E0,9.899661501E0
1.656140967E1,4.385879517E-1,2.296224976E-1,9.874815216E0,9.887217072E0
1.657144067E1,4.264631653E-1,2.371069336E-1,9.844278717E0,9.856364136E0
1.658147267E1,4.120930481E-1,2.408491516E-1,9.795480194E0,9.807102591E0
1.659150408E1,3.872447205E-1,2.609074402E-1,9.795779572E0,9.806902089E0
1.660153508E1,4.085005188E-1,2.630030823E-1,9.829908600E0,9.841907659E0
1.661156708E1,4.251159668E-1,2.408491516E-1,9.854008484E0,9.866114488E0
1.662159908E1,4.281097412E-1,2.225871277E-1,9.818382568E0,9.830231902E0
1.663163008E1,3.933819580E-1,2.182461548E-1,9.788893890E0,9.799225701E0
1.664166108E1,3.941304016E-1,2.038760376E-1,9.807604980E0,9.817638192E0
1.665169308E1,4.420307922E-1,1.992356873E-1,9.876611481E0,9.888505470E0
1.666172408E1,4.781057739E-1,2.011816406E-1,9.857750702E0,9.871388356E0
1.667175608E1,4.727169800E-1,2.026785278E-1,9.837393036E0,9.850829492E0
